ExperimentName	Subject	Session	Clock.Information	DataFile.Basename	Display.RefreshRate	ExperimentVersion	Group	RandomSeed	RuntimeCapabilities	RuntimeVersion	RuntimeVersionExpected	SessionDate	SessionStartDateTimeUtc	SessionTime	StudioVersion	Block	explist	explist.Cycle	explist.Sample	filename[Block]	insprac1.ACC	insprac1.CRESP	insprac1.DurationError	insprac1.OnsetDelay	insprac1.OnsetTime	insprac1.OnsetToOnsetTime	insprac1.RESP	insprac1.RT	insprac1.RTTime	pracCat.ACC	pracCat.CRESP	pracCat.DurationError	pracCat.OnsetDelay	pracCat.OnsetTime	pracCat.OnsetToOnsetTime	pracCat.RESP	pracCat.RT	pracCat.RTTime	praclist	praclist.Cycle	praclist.Sample	pracRate.ACC	pracRate.CRESP	pracRate.DurationError	pracRate.OnsetDelay	pracRate.OnsetTime	pracRate.OnsetToOnsetTime	pracRate.RESP	pracRate.RT	pracRate.RTTime	Procedure[Block]	Running[Block]	speaker[Block]	syllable[Block]	token[Block]	tone[Block]	waitprac2.ACC	waitprac2.CRESP	waitprac2.DurationError	waitprac2.OnsetDelay	waitprac2.OnsetTime	waitprac2.OnsetToOnsetTime	waitprac2.RESP	waitprac2.RT	waitprac2.RTTime	Trial	block1alist	block1alist.Cycle	block1alist.Sample	block1blist	block1blist.Cycle	block1blist.Sample	block2alist	block2alist.Cycle	block2alist.Sample	block2blist	block2blist.Cycle	block2blist.Sample	block3list	block3list.Cycle	block3list.Sample	block4list	block4list.Cycle	block4list.Sample	block5list	block5list.Cycle	block5list.Sample	block6list	block6list.Cycle	block6list.Sample	block7list	block7list.Cycle	block7list.Sample	expcat.ACC	expcat.CRESP	expcat.DurationError	expcat.OnsetDelay	expcat.OnsetTime	expcat.OnsetToOnsetTime	expcat.RESP	expcat.RT	expcat.RTTime	exprate.ACC	exprate.CRESP	exprate.DurationError	exprate.OnsetDelay	exprate.OnsetTime	exprate.OnsetToOnsetTime	exprate.RESP	exprate.RT	exprate.RTTime	FeedbackDisplay2.ACC	FeedbackDisplay2.CRESP	FeedbackDisplay2.DurationError	FeedbackDisplay2.OnsetDelay	FeedbackDisplay2.OnsetTime	FeedbackDisplay2.OnsetToOnsetTime	FeedbackDisplay2.RESP	FeedbackDisplay2.RT	FeedbackDisplay2.RTTime	filename[Trial]	insex1.ACC	insex1.CRESP	insex1.DurationError	insex1.OnsetDelay	insex1.OnsetTime	insex1.OnsetToOnsetTime	insex1.RESP	insex1.RT	insex1.RTTime	Procedure[Trial]	Running[Trial]	speaker[Trial]	syllable[Trial]	token[Trial]	tone[Trial]
Assim_main_chinese_500ms	111	1	<?xml version="1.0"?>\n<Clock xmlns:dt="urn:schemas-microsoft-com:datatypes"><Description dt:dt="string">E-Prime Primary Realtime Clock</Description><StartTime><Timestamp dt:dt="int">0</Timestamp><DateUtc dt:dt="string">2018-02-22T01:32:40Z</DateUtc></StartTime><FrequencyChanges><FrequencyChange><Frequency dt:dt="r8">2742373</Frequency><Timestamp dt:dt="r8">23588584154</Timestamp><Current dt:dt="r8">0</Current><DateUtc dt:dt="string">2018-02-22T01:32:40Z</DateUtc></FrequencyChange></FrequencyChanges></Clock>\n	Assim_main_chinese_500ms-111-1	60.016	1.0.0.76	1	2113923652	Professional	2.0.10.353	2.0.10.353	02-22-2018	22-Feb-18 1:32:40 AM	12:32:40	2.0.10.248	1				Thai_F1_maa21-1	0		0	-1	20085	0	j	207	20292	1		105	135	18586	1499		0	0	1	1	1	0	4	0	10	20302	0	7	1796	22098	pracproc	praclist	F1	maa	1	21	1		0	19	22118	0		0	0																																																																							
Assim_main_chinese_500ms	111	1	<?xml version="1.0"?>\n<Clock xmlns:dt="urn:schemas-microsoft-com:datatypes"><Description dt:dt="string">E-Prime Primary Realtime Clock</Description><StartTime><Timestamp dt:dt="int">0</Timestamp><DateUtc dt:dt="string">2018-02-22T01:32:40Z</DateUtc></StartTime><FrequencyChanges><FrequencyChange><Frequency dt:dt="r8">2742373</Frequency><Timestamp dt:dt="r8">23588584154</Timestamp><Current dt:dt="r8">0</Current><DateUtc dt:dt="string">2018-02-22T01:32:40Z</DateUtc></FrequencyChange></FrequencyChanges></Clock>\n	Assim_main_chinese_500ms-111-1	60.016	1.0.0.76	1	2113923652	Professional	2.0.10.353	2.0.10.353	02-22-2018	22-Feb-18 1:32:40 AM	12:32:40	2.0.10.248	2				Thai_F1_maa45-3	0		0	0	24701	0	h	1715	26416	1		0	83	23201	1500		0	0	5	1	2	0	4	1	17	26433	0	6	1605	28038	pracproc	praclist	F1	maa	3	45	1		0	10	28050	0		0	0																																																																							
Assim_main_chinese_500ms	111	1	<?xml version="1.0"?>\n<Clock xmlns:dt="urn:schemas-microsoft-com:datatypes"><Description dt:dt="string">E-Prime Primary Realtime Clock</Description><StartTime><Timestamp dt:dt="int">0</Timestamp><DateUtc dt:dt="string">2018-02-22T01:32:40Z</DateUtc></StartTime><FrequencyChanges><FrequencyChange><Frequency dt:dt="r8">2742373</Frequency><Timestamp dt:dt="r8">23588584154</Timestamp><Current dt:dt="r8">0</Current><DateUtc dt:dt="string">2018-02-22T01:32:40Z</DateUtc></FrequencyChange></FrequencyChanges></Clock>\n	Assim_main_chinese_500ms-111-1	60.016	1.0.0.76	1	2113923652	Professional	2.0.10.353	2.0.10.353	02-22-2018	22-Feb-18 1:32:40 AM	12:32:40	2.0.10.248	3				Thai_F1_maa241-1	0		0	0	30649	0	j	164	30813	1		1	99	29149	1500		0	0	2	1	3	0	4	0	19	30832	0	7	1579	32411	pracproc	praclist	F1	maa	1	241	1		0	19	32432	0		0	0																																																																							
Assim_main_chinese_500ms	111	1	<?xml version="1.0"?>\n<Clock xmlns:dt="urn:schemas-microsoft-com:datatypes"><Description dt:dt="string">E-Prime Primary Realtime Clock</Description><StartTime><Timestamp dt:dt="int">0</Timestamp><DateUtc dt:dt="string">2018-02-22T01:32:40Z</DateUtc></StartTime><FrequencyChanges><FrequencyChange><Frequency dt:dt="r8">2742373</Frequency><Timestamp dt:dt="r8">23588584154</Timestamp><Current dt:dt="r8">0</Current><DateUtc dt:dt="string">2018-02-22T01:32:40Z</DateUtc></FrequencyChange></FrequencyChanges></Clock>\n	Assim_main_chinese_500ms-111-1	60.016	1.0.0.76	1	2113923652	Professional	2.0.10.353	2.0.10.353	02-22-2018	22-Feb-18 1:32:40 AM	12:32:40	2.0.10.248	4				Thai_F1_mii45-1	0		0	-1	35031	0	h	170	35201	1		0	100	33532	1499		0	0	10	1	4	0	4	1	13	35214	0	6	1683	36897	pracproc	praclist	F1	mii	1	45	1		0	16	36914	0		0	0																																																																							
Assim_main_chinese_500ms	111	1	<?xml version="1.0"?>\n<Clock xmlns:dt="urn:schemas-microsoft-com:datatypes"><Description dt:dt="string">E-Prime Primary Realtime Clock</Description><StartTime><Timestamp dt:dt="int">0</Timestamp><DateUtc dt:dt="string">2018-02-22T01:32:40Z</DateUtc></StartTime><FrequencyChanges><FrequencyChange><Frequency dt:dt="r8">2742373</Frequency><Timestamp dt:dt="r8">23588584154</Timestamp><Current dt:dt="r8">0</Current><DateUtc dt:dt="string">2018-02-22T01:32:40Z</DateUtc></FrequencyChange></FrequencyChanges></Clock>\n	Assim_main_chinese_500ms-111-1	60.016	1.0.0.76	1	2113923652	Professional	2.0.10.353	2.0.10.353	02-22-2018	22-Feb-18 1:32:40 AM	12:32:40	2.0.10.248	5				Thai_F1_maa315-2	0		0	0	39497	0	h	27	39524	1		0	83	37997	1500		0	0	3	1	5	0	4	0	6	39530	0	7	1617	41147	pracproc	praclist	F1	maa	2	315	1		0	15	41163	0		0	0																																																																							
Assim_main_chinese_500ms	111	1	<?xml version="1.0"?>\n<Clock xmlns:dt="urn:schemas-microsoft-com:datatypes"><Description dt:dt="string">E-Prime Primary Realtime Clock</Description><StartTime><Timestamp dt:dt="int">0</Timestamp><DateUtc dt:dt="string">2018-02-22T01:32:40Z</DateUtc></StartTime><FrequencyChanges><FrequencyChange><Frequency dt:dt="r8">2742373</Frequency><Timestamp dt:dt="r8">23588584154</Timestamp><Current dt:dt="r8">0</Current><DateUtc dt:dt="string">2018-02-22T01:32:40Z</DateUtc></FrequencyChange></FrequencyChanges></Clock>\n	Assim_main_chinese_500ms-111-1	60.016	1.0.0.76	1	2113923652	Professional	2.0.10.353	2.0.10.353	02-22-2018	22-Feb-18 1:32:40 AM	12:32:40	2.0.10.248	6				Thai_F1_maa33-4	0		0	-1	43762	0	f	2103	45865	0		0	100	42263	1499	f	1269	43532	4	1	6	0	4	0	13	45878	0	7	1960	47838	pracproc	praclist	F1	maa	4	33	1		0	19	47861	0		0	0																																																																							
Assim_main_chinese_500ms	111	1	<?xml version="1.0"?>\n<Clock xmlns:dt="urn:schemas-microsoft-com:datatypes"><Description dt:dt="string">E-Prime Primary Realtime Clock</Description><StartTime><Timestamp dt:dt="int">0</Timestamp><DateUtc dt:dt="string">2018-02-22T01:32:40Z</DateUtc></StartTime><FrequencyChanges><FrequencyChange><Frequency dt:dt="r8">2742373</Frequency><Timestamp dt:dt="r8">23588584154</Timestamp><Current dt:dt="r8">0</Current><DateUtc dt:dt="string">2018-02-22T01:32:40Z</DateUtc></FrequencyChange></FrequencyChanges></Clock>\n	Assim_main_chinese_500ms-111-1	60.016	1.0.0.76	1	2113923652	Professional	2.0.10.353	2.0.10.353	02-22-2018	22-Feb-18 1:32:40 AM	12:32:40	2.0.10.248	7				Thai_F1_mii21-1	0		0	0	50461	0	j	267	50728	1		0	100	48961	1500		0	0	6	1	7	0	4	0	16	50744	0	6	2298	53042	pracproc	praclist	F1	mii	1	21	1		0	15	53060	0		0	0																																																																							
Assim_main_chinese_500ms	111	1	<?xml version="1.0"?>\n<Clock xmlns:dt="urn:schemas-microsoft-com:datatypes"><Description dt:dt="string">E-Prime Primary Realtime Clock</Description><StartTime><Timestamp dt:dt="int">0</Timestamp><DateUtc dt:dt="string">2018-02-22T01:32:40Z</DateUtc></StartTime><FrequencyChanges><FrequencyChange><Frequency dt:dt="r8">2742373</Frequency><Timestamp dt:dt="r8">23588584154</Timestamp><Current dt:dt="r8">0</Current><DateUtc dt:dt="string">2018-02-22T01:32:40Z</DateUtc></FrequencyChange></FrequencyChanges></Clock>\n	Assim_main_chinese_500ms-111-1	60.016	1.0.0.76	1	2113923652	Professional	2.0.10.353	2.0.10.353	02-22-2018	22-Feb-18 1:32:40 AM	12:32:40	2.0.10.248	8				Thai_F1_mii315-2	0		0	0	55643	0	h	1014	56657	0		0	83	54143	1500	h	1471	55614	8	1	8	0	4	0	19	56676	0	7	3006	59682	pracproc	praclist	F1	mii	2	315	1		0	24	59708	0		0	0																																																																							
Assim_main_chinese_500ms	111	1	<?xml version="1.0"?>\n<Clock xmlns:dt="urn:schemas-microsoft-com:datatypes"><Description dt:dt="string">E-Prime Primary Realtime Clock</Description><StartTime><Timestamp dt:dt="int">0</Timestamp><DateUtc dt:dt="string">2018-02-22T01:32:40Z</DateUtc></StartTime><FrequencyChanges><FrequencyChange><Frequency dt:dt="r8">2742373</Frequency><Timestamp dt:dt="r8">23588584154</Timestamp><Current dt:dt="r8">0</Current><DateUtc dt:dt="string">2018-02-22T01:32:40Z</DateUtc></FrequencyChange></FrequencyChanges></Clock>\n	Assim_main_chinese_500ms-111-1	60.016	1.0.0.76	1	2113923652	Professional	2.0.10.353	2.0.10.353	02-22-2018	22-Feb-18 1:32:40 AM	12:32:40	2.0.10.248	9				Thai_F1_mii33-2	0		0	0	62291	0	f	335	62626	1		0	83	60791	1500		0	0	9	1	9	0	4	0	15	62641	0	6	2895	65536	pracproc	praclist	F1	mii	2	33	1		0	18	65557	0		0	0																																																																							
Assim_main_chinese_500ms	111	1	<?xml version="1.0"?>\n<Clock xmlns:dt="urn:schemas-microsoft-com:datatypes"><Description dt:dt="string">E-Prime Primary Realtime Clock</Description><StartTime><Timestamp dt:dt="int">0</Timestamp><DateUtc dt:dt="string">2018-02-22T01:32:40Z</DateUtc></StartTime><FrequencyChanges><FrequencyChange><Frequency dt:dt="r8">2742373</Frequency><Timestamp dt:dt="r8">23588584154</Timestamp><Current dt:dt="r8">0</Current><DateUtc dt:dt="string">2018-02-22T01:32:40Z</DateUtc></FrequencyChange></FrequencyChanges></Clock>\n	Assim_main_chinese_500ms-111-1	60.016	1.0.0.76	1	2113923652	Professional	2.0.10.353	2.0.10.353	02-22-2018	22-Feb-18 1:32:40 AM	12:32:40	2.0.10.248	10				Thai_F1_mii241-1	0		0	-1	68139	0	j	308	68447	1		0	83	66640	1499		0	0	7	1	10	0	4	0	9	68456	0	6	2565	71021	pracproc	praclist	F1	mii	1	241	1		0	17	71038	0		0	0																																																																							
Assim_main_chinese_500ms	111	1	<?xml version="1.0"?>\n<Clock xmlns:dt="urn:schemas-microsoft-com:datatypes"><Description dt:dt="string">E-Prime Primary Realtime Clock</Description><StartTime><Timestamp dt:dt="int">0</Timestamp><DateUtc dt:dt="string">2018-02-22T01:32:40Z</DateUtc></StartTime><FrequencyChanges><FrequencyChange><Frequency dt:dt="r8">2742373</Frequency><Timestamp dt:dt="r8">23588584154</Timestamp><Current dt:dt="r8">0</Current><DateUtc dt:dt="string">2018-02-22T01:32:40Z</DateUtc></FrequencyChange></FrequencyChanges></Clock>\n	Assim_main_chinese_500ms-111-1	60.016	1.0.0.76	1	2113923652	Professional	2.0.10.353	2.0.10.353	02-22-2018	22-Feb-18 1:32:40 AM	12:32:40	2.0.10.248	11	4	1	1																																block4	explist														1																8	1	1										1		0	86	142187	1499		0	0	0	4	1	5	143886	0	7	1402	145288	1		0	29	145319	0		0	0	Thai_F4_mii315-4	0		0	-1	143686	0	h	195	143881	exproc	block4list	F4	mii	4	315
Assim_main_chinese_500ms	111	1	<?xml version="1.0"?>\n<Clock xmlns:dt="urn:schemas-microsoft-com:datatypes"><Description dt:dt="string">E-Prime Primary Realtime Clock</Description><StartTime><Timestamp dt:dt="int">0</Timestamp><DateUtc dt:dt="string">2018-02-22T01:32:40Z</DateUtc></StartTime><FrequencyChanges><FrequencyChange><Frequency dt:dt="r8">2742373</Frequency><Timestamp dt:dt="r8">23588584154</Timestamp><Current dt:dt="r8">0</Current><DateUtc dt:dt="string">2018-02-22T01:32:40Z</DateUtc></FrequencyChange></FrequencyChanges></Clock>\n	Assim_main_chinese_500ms-111-1	60.016	1.0.0.76	1	2113923652	Professional	2.0.10.353	2.0.10.353	02-22-2018	22-Feb-18 1:32:40 AM	12:32:40	2.0.10.248	11	4	1	1																																block4	explist														2																1	1	2										1		0	83	146402	1500		0	0	0	4	0	11	148268	0	7	1575	149843	1		0	22	149868	0		0	0	Thai_F4_maa21-1	0		0	0	147902	0	g	355	148257	exproc	block4list	F4	maa	1	21
Assim_main_chinese_500ms	111	1	<?xml version="1.0"?>\n<Clock xmlns:dt="urn:schemas-microsoft-com:datatypes"><Description dt:dt="string">E-Prime Primary Realtime Clock</Description><StartTime><Timestamp dt:dt="int">0</Timestamp><DateUtc dt:dt="string">2018-02-22T01:32:40Z</DateUtc></StartTime><FrequencyChanges><FrequencyChange><Frequency dt:dt="r8">2742373</Frequency><Timestamp dt:dt="r8">23588584154</Timestamp><Current dt:dt="r8">0</Current><DateUtc dt:dt="string">2018-02-22T01:32:40Z</DateUtc></FrequencyChange></FrequencyChanges></Clock>\n	Assim_main_chinese_500ms-111-1	60.016	1.0.0.76	1	2113923652	Professional	2.0.10.353	2.0.10.353	02-22-2018	22-Feb-18 1:32:40 AM	12:32:40	2.0.10.248	11	4	1	1																																block4	explist														3																5	1	3										1		0	83	150951	1500		0	0	0	4	0	10	152734	0	7	1590	154324	1		0	8	154333	0		0	0	Thai_F4_maa45-3	0		0	0	152451	0	h	273	152724	exproc	block4list	F4	maa	3	45
Assim_main_chinese_500ms	111	1	<?xml version="1.0"?>\n<Clock xmlns:dt="urn:schemas-microsoft-com:datatypes"><Description dt:dt="string">E-Prime Primary Realtime Clock</Description><StartTime><Timestamp dt:dt="int">0</Timestamp><DateUtc dt:dt="string">2018-02-22T01:32:40Z</DateUtc></StartTime><FrequencyChanges><FrequencyChange><Frequency dt:dt="r8">2742373</Frequency><Timestamp dt:dt="r8">23588584154</Timestamp><Current dt:dt="r8">0</Current><DateUtc dt:dt="string">2018-02-22T01:32:40Z</DateUtc></FrequencyChange></FrequencyChanges></Clock>\n	Assim_main_chinese_500ms-111-1	60.016	1.0.0.76	1	2113923652	Professional	2.0.10.353	2.0.10.353	02-22-2018	22-Feb-18 1:32:40 AM	12:32:40	2.0.10.248	11	4	1	1																																block4	explist														4																4	1	4										1		1	83	155416	1500		0	0	0	4	0	12	157333	0	7	1356	158689	1		0	25	158716	0		0	0	Thai_F4_maa33-1	0		0	0	156916	0	f	404	157320	exproc	block4list	F4	maa	1	33
Assim_main_chinese_500ms	111	1	<?xml version="1.0"?>\n<Clock xmlns:dt="urn:schemas-microsoft-com:datatypes"><Description dt:dt="string">E-Prime Primary Realtime Clock</Description><StartTime><Timestamp dt:dt="int">0</Timestamp><DateUtc dt:dt="string">2018-02-22T01:32:40Z</DateUtc></StartTime><FrequencyChanges><FrequencyChange><Frequency dt:dt="r8">2742373</Frequency><Timestamp dt:dt="r8">23588584154</Timestamp><Current dt:dt="r8">0</Current><DateUtc dt:dt="string">2018-02-22T01:32:40Z</DateUtc></FrequencyChange></FrequencyChanges></Clock>\n	Assim_main_chinese_500ms-111-1	60.016	1.0.0.76	1	2113923652	Professional	2.0.10.353	2.0.10.353	02-22-2018	22-Feb-18 1:32:40 AM	12:32:40	2.0.10.248	11	4	1	1																																block4	explist														5																20	1	5										1		0	83	159799	1499		0	0	0	4	0	22	161632	0	7	1553	163185	1		0	12	163198	0		0	0	Thai_F4_mii45-3	0		0	-1	161298	0	h	312	161610	exproc	block4list	F4	mii	3	45
Assim_main_chinese_500ms	111	1	<?xml version="1.0"?>\n<Clock xmlns:dt="urn:schemas-microsoft-com:datatypes"><Description dt:dt="string">E-Prime Primary Realtime Clock</Description><StartTime><Timestamp dt:dt="int">0</Timestamp><DateUtc dt:dt="string">2018-02-22T01:32:40Z</DateUtc></StartTime><FrequencyChanges><FrequencyChange><Frequency dt:dt="r8">2742373</Frequency><Timestamp dt:dt="r8">23588584154</Timestamp><Current dt:dt="r8">0</Current><DateUtc dt:dt="string">2018-02-22T01:32:40Z</DateUtc></FrequencyChange></FrequencyChanges></Clock>\n	Assim_main_chinese_500ms-111-1	60.016	1.0.0.76	1	2113923652	Professional	2.0.10.353	2.0.10.353	02-22-2018	22-Feb-18 1:32:40 AM	12:32:40	2.0.10.248	11	4	1	1																																block4	explist														6																10	1	6										0		0	116	164314	1500	g	1460	165774	0	4	0	9	166714	0	7	1979	168693	1		0	19	168713	0		0	0	Thai_F4_mii45-2	0		0	0	165814	0	g	891	166705	exproc	block4list	F4	mii	2	45
Assim_main_chinese_500ms	111	1	<?xml version="1.0"?>\n<Clock xmlns:dt="urn:schemas-microsoft-com:datatypes"><Description dt:dt="string">E-Prime Primary Realtime Clock</Description><StartTime><Timestamp dt:dt="int">0</Timestamp><DateUtc dt:dt="string">2018-02-22T01:32:40Z</DateUtc></StartTime><FrequencyChanges><FrequencyChange><Frequency dt:dt="r8">2742373</Frequency><Timestamp dt:dt="r8">23588584154</Timestamp><Current dt:dt="r8">0</Current><DateUtc dt:dt="string">2018-02-22T01:32:40Z</DateUtc></FrequencyChange></FrequencyChanges></Clock>\n	Assim_main_chinese_500ms-111-1	60.016	1.0.0.76	1	2113923652	Professional	2.0.10.353	2.0.10.353	02-22-2018	22-Feb-18 1:32:40 AM	12:32:40	2.0.10.248	11	4	1	1																																block4	explist														7																14	1	7										1		0	83	169796	1500		0	0	0	4	0	9	171712	0	6	1989	173701	1		0	27	173728	0		0	0	Thai_F4_maa33-5	0		0	0	171296	0	f	407	171703	exproc	block4list	F4	maa	5	33
Assim_main_chinese_500ms	111	1	<?xml version="1.0"?>\n<Clock xmlns:dt="urn:schemas-microsoft-com:datatypes"><Description dt:dt="string">E-Prime Primary Realtime Clock</Description><StartTime><Timestamp dt:dt="int">0</Timestamp><DateUtc dt:dt="string">2018-02-22T01:32:40Z</DateUtc></StartTime><FrequencyChanges><FrequencyChange><Frequency dt:dt="r8">2742373</Frequency><Timestamp dt:dt="r8">23588584154</Timestamp><Current dt:dt="r8">0</Current><DateUtc dt:dt="string">2018-02-22T01:32:40Z</DateUtc></FrequencyChange></FrequencyChanges></Clock>\n	Assim_main_chinese_500ms-111-1	60.016	1.0.0.76	1	2113923652	Professional	2.0.10.353	2.0.10.353	02-22-2018	22-Feb-18 1:32:40 AM	12:32:40	2.0.10.248	11	4	1	1																																block4	explist														8																7	1	8										1		0	117	174845	1499		0	0	0	4	0	8	176611	0	7	1826	178437	1		0	19	178460	0		0	0	Thai_F4_mii241-2	0		0	-1	176344	0	j	259	176603	exproc	block4list	F4	mii	2	241
Assim_main_chinese_500ms	111	1	<?xml version="1.0"?>\n<Clock xmlns:dt="urn:schemas-microsoft-com:datatypes"><Description dt:dt="string">E-Prime Primary Realtime Clock</Description><StartTime><Timestamp dt:dt="int">0</Timestamp><DateUtc dt:dt="string">2018-02-22T01:32:40Z</DateUtc></StartTime><FrequencyChanges><FrequencyChange><Frequency dt:dt="r8">2742373</Frequency><Timestamp dt:dt="r8">23588584154</Timestamp><Current dt:dt="r8">0</Current><DateUtc dt:dt="string">2018-02-22T01:32:40Z</DateUtc></FrequencyChange></FrequencyChanges></Clock>\n	Assim_main_chinese_500ms-111-1	60.016	1.0.0.76	1	2113923652	Professional	2.0.10.353	2.0.10.353	02-22-2018	22-Feb-18 1:32:40 AM	12:32:40	2.0.10.248	11	4	1	1																																block4	explist														9																2	1	9										1		0	117	179577	1499		0	0	0	4	0	12	182110	0	7	2491	184601	1		0	25	184626	0		0	0	Thai_F4_maa241-5	0		1	-1	181076	0	f	1022	182098	exproc	block4list	F4	maa	5	241
Assim_main_chinese_500ms	111	1	<?xml version="1.0"?>\n<Clock xmlns:dt="urn:schemas-microsoft-com:datatypes"><Description dt:dt="string">E-Prime Primary Realtime Clock</Description><StartTime><Timestamp dt:dt="int">0</Timestamp><DateUtc dt:dt="string">2018-02-22T01:32:40Z</DateUtc></StartTime><FrequencyChanges><FrequencyChange><Frequency dt:dt="r8">2742373</Frequency><Timestamp dt:dt="r8">23588584154</Timestamp><Current dt:dt="r8">0</Current><DateUtc dt:dt="string">2018-02-22T01:32:40Z</DateUtc></FrequencyChange></FrequencyChanges></Clock>\n	Assim_main_chinese_500ms-111-1	60.016	1.0.0.76	1	2113923652	Professional	2.0.10.353	2.0.10.353	02-22-2018	22-Feb-18 1:32:40 AM	12:32:40	2.0.10.248	11	4	1	1																																block4	explist														10																9	1	10										1		0	83	185709	1499		0	0	0	4	0	9	188075	0	6	1677	189752	1		0	20	189774	0		0	0	Thai_F4_mii33-5	0		0	-1	187208	0	f	858	188066	exproc	block4list	F4	mii	5	33
Assim_main_chinese_500ms	111	1	<?xml version="1.0"?>\n<Clock xmlns:dt="urn:schemas-microsoft-com:datatypes"><Description dt:dt="string">E-Prime Primary Realtime Clock</Description><StartTime><Timestamp dt:dt="int">0</Timestamp><DateUtc dt:dt="string">2018-02-22T01:32:40Z</DateUtc></StartTime><FrequencyChanges><FrequencyChange><Frequency dt:dt="r8">2742373</Frequency><Timestamp dt:dt="r8">23588584154</Timestamp><Current dt:dt="r8">0</Current><DateUtc dt:dt="string">2018-02-22T01:32:40Z</DateUtc></FrequencyChange></FrequencyChanges></Clock>\n	Assim_main_chinese_500ms-111-1	60.016	1.0.0.76	1	2113923652	Professional	2.0.10.353	2.0.10.353	02-22-2018	22-Feb-18 1:32:40 AM	12:32:40	2.0.10.248	11	4	1	1																																block4	explist														11																15	1	11										1		0	83	190857	1500		0	0	0	4	0	20	192807	0	6	1334	194141	1		0	12	194156	0		0	0	Thai_F4_maa45-4	0		0	0	192357	0	h	430	192787	exproc	block4list	F4	maa	4	45
Assim_main_chinese_500ms	111	1	<?xml version="1.0"?>\n<Clock xmlns:dt="urn:schemas-microsoft-com:datatypes"><Description dt:dt="string">E-Prime Primary Realtime Clock</Description><StartTime><Timestamp dt:dt="int">0</Timestamp><DateUtc dt:dt="string">2018-02-22T01:32:40Z</DateUtc></StartTime><FrequencyChanges><FrequencyChange><Frequency dt:dt="r8">2742373</Frequency><Timestamp dt:dt="r8">23588584154</Timestamp><Current dt:dt="r8">0</Current><DateUtc dt:dt="string">2018-02-22T01:32:40Z</DateUtc></FrequencyChange></FrequencyChanges></Clock>\n	Assim_main_chinese_500ms-111-1	60.016	1.0.0.76	1	2113923652	Professional	2.0.10.353	2.0.10.353	02-22-2018	22-Feb-18 1:32:40 AM	12:32:40	2.0.10.248	11	4	1	1																																block4	explist														12																11	1	12										1		1	83	195239	1500		0	0	0	4	0	7	197339	0	6	2400	199739	1		0	13	199755	0		0	0	Thai_F4_maa21-4	0		0	0	196739	0	g	592	197331	exproc	block4list	F4	maa	4	21
Assim_main_chinese_500ms	111	1	<?xml version="1.0"?>\n<Clock xmlns:dt="urn:schemas-microsoft-com:datatypes"><Description dt:dt="string">E-Prime Primary Realtime Clock</Description><StartTime><Timestamp dt:dt="int">0</Timestamp><DateUtc dt:dt="string">2018-02-22T01:32:40Z</DateUtc></StartTime><FrequencyChanges><FrequencyChange><Frequency dt:dt="r8">2742373</Frequency><Timestamp dt:dt="r8">23588584154</Timestamp><Current dt:dt="r8">0</Current><DateUtc dt:dt="string">2018-02-22T01:32:40Z</DateUtc></FrequencyChange></FrequencyChanges></Clock>\n	Assim_main_chinese_500ms-111-1	60.016	1.0.0.76	1	2113923652	Professional	2.0.10.353	2.0.10.353	02-22-2018	22-Feb-18 1:32:40 AM	12:32:40	2.0.10.248	11	4	1	1																																block4	explist														13																12	1	13										1		0	83	200838	1500		0	0	0	4	0	11	203737	0	7	1934	205671	1		0	15	205687	0		0	0	Thai_F4_maa241-6	0		0	0	202338	0	j	1388	203726	exproc	block4list	F4	maa	6	241
Assim_main_chinese_500ms	111	1	<?xml version="1.0"?>\n<Clock xmlns:dt="urn:schemas-microsoft-com:datatypes"><Description dt:dt="string">E-Prime Primary Realtime Clock</Description><StartTime><Timestamp dt:dt="int">0</Timestamp><DateUtc dt:dt="string">2018-02-22T01:32:40Z</DateUtc></StartTime><FrequencyChanges><FrequencyChange><Frequency dt:dt="r8">2742373</Frequency><Timestamp dt:dt="r8">23588584154</Timestamp><Current dt:dt="r8">0</Current><DateUtc dt:dt="string">2018-02-22T01:32:40Z</DateUtc></FrequencyChange></FrequencyChanges></Clock>\n	Assim_main_chinese_500ms-111-1	60.016	1.0.0.76	1	2113923652	Professional	2.0.10.353	2.0.10.353	02-22-2018	22-Feb-18 1:32:40 AM	12:32:40	2.0.10.248	11	4	1	1																																block4	explist														14																18	1	14										1		0	83	206770	1499		0	0	0	4	0	21	208519	0	7	1052	209571	1		0	14	209586	0		0	0	Thai_F4_mii315-6	0		0	-1	208269	0	h	229	208498	exproc	block4list	F4	mii	6	315
Assim_main_chinese_500ms	111	1	<?xml version="1.0"?>\n<Clock xmlns:dt="urn:schemas-microsoft-com:datatypes"><Description dt:dt="string">E-Prime Primary Realtime Clock</Description><StartTime><Timestamp dt:dt="int">0</Timestamp><DateUtc dt:dt="string">2018-02-22T01:32:40Z</DateUtc></StartTime><FrequencyChanges><FrequencyChange><Frequency dt:dt="r8">2742373</Frequency><Timestamp dt:dt="r8">23588584154</Timestamp><Current dt:dt="r8">0</Current><DateUtc dt:dt="string">2018-02-22T01:32:40Z</DateUtc></FrequencyChange></FrequencyChanges></Clock>\n	Assim_main_chinese_500ms-111-1	60.016	1.0.0.76	1	2113923652	Professional	2.0.10.353	2.0.10.353	02-22-2018	22-Feb-18 1:32:40 AM	12:32:40	2.0.10.248	11	4	1	1																																block4	explist														15																3	1	15										1		0	83	210669	1499		0	0	0	4	0	20	212418	0	7	1263	213681	1		0	18	213701	0		0	0	Thai_F4_maa315-5	0		0	-1	212168	0	h	230	212398	exproc	block4list	F4	maa	5	315
Assim_main_chinese_500ms	111	1	<?xml version="1.0"?>\n<Clock xmlns:dt="urn:schemas-microsoft-com:datatypes"><Description dt:dt="string">E-Prime Primary Realtime Clock</Description><StartTime><Timestamp dt:dt="int">0</Timestamp><DateUtc dt:dt="string">2018-02-22T01:32:40Z</DateUtc></StartTime><FrequencyChanges><FrequencyChange><Frequency dt:dt="r8">2742373</Frequency><Timestamp dt:dt="r8">23588584154</Timestamp><Current dt:dt="r8">0</Current><DateUtc dt:dt="string">2018-02-22T01:32:40Z</DateUtc></FrequencyChange></FrequencyChanges></Clock>\n	Assim_main_chinese_500ms-111-1	60.016	1.0.0.76	1	2113923652	Professional	2.0.10.353	2.0.10.353	02-22-2018	22-Feb-18 1:32:40 AM	12:32:40	2.0.10.248	11	4	1	1																																block4	explist														16																16	1	16										1		0	83	214784	1500		0	0	0	4	0	14	216584	0	6	2287	218871	1		0	10	218883	0		0	0	Thai_F4_mii21-6	0		0	0	216284	0	j	286	216570	exproc	block4list	F4	mii	6	21
Assim_main_chinese_500ms	111	1	<?xml version="1.0"?>\n<Clock xmlns:dt="urn:schemas-microsoft-com:datatypes"><Description dt:dt="string">E-Prime Primary Realtime Clock</Description><StartTime><Timestamp dt:dt="int">0</Timestamp><DateUtc dt:dt="string">2018-02-22T01:32:40Z</DateUtc></StartTime><FrequencyChanges><FrequencyChange><Frequency dt:dt="r8">2742373</Frequency><Timestamp dt:dt="r8">23588584154</Timestamp><Current dt:dt="r8">0</Current><DateUtc dt:dt="string">2018-02-22T01:32:40Z</DateUtc></FrequencyChange></FrequencyChanges></Clock>\n	Assim_main_chinese_500ms-111-1	60.016	1.0.0.76	1	2113923652	Professional	2.0.10.353	2.0.10.353	02-22-2018	22-Feb-18 1:32:40 AM	12:32:40	2.0.10.248	11	4	1	1																																block4	explist														17																6	1	17										1		0	83	219966	1500		0	0	0	4	0	15	221999	0	7	1688	223687	1		0	12	223699	0		0	0	Thai_F4_mii21-2	0		0	0	221466	0	j	518	221984	exproc	block4list	F4	mii	2	21
Assim_main_chinese_500ms	111	1	<?xml version="1.0"?>\n<Clock xmlns:dt="urn:schemas-microsoft-com:datatypes"><Description dt:dt="string">E-Prime Primary Realtime Clock</Description><StartTime><Timestamp dt:dt="int">0</Timestamp><DateUtc dt:dt="string">2018-02-22T01:32:40Z</DateUtc></StartTime><FrequencyChanges><FrequencyChange><Frequency dt:dt="r8">2742373</Frequency><Timestamp dt:dt="r8">23588584154</Timestamp><Current dt:dt="r8">0</Current><DateUtc dt:dt="string">2018-02-22T01:32:40Z</DateUtc></FrequencyChange></FrequencyChanges></Clock>\n	Assim_main_chinese_500ms-111-1	60.016	1.0.0.76	1	2113923652	Professional	2.0.10.353	2.0.10.353	02-22-2018	22-Feb-18 1:32:40 AM	12:32:40	2.0.10.248	11	4	1	1																																block4	explist														18																13	1	18										1		0	99	224798	1500		0	0	0	4	0	20	226581	0	7	2162	228743	1		0	20	228764	0		0	0	Thai_F4_maa315-6	0		0	0	226298	0	h	263	226561	exproc	block4list	F4	maa	6	315
Assim_main_chinese_500ms	111	1	<?xml version="1.0"?>\n<Clock xmlns:dt="urn:schemas-microsoft-com:datatypes"><Description dt:dt="string">E-Prime Primary Realtime Clock</Description><StartTime><Timestamp dt:dt="int">0</Timestamp><DateUtc dt:dt="string">2018-02-22T01:32:40Z</DateUtc></StartTime><FrequencyChanges><FrequencyChange><Frequency dt:dt="r8">2742373</Frequency><Timestamp dt:dt="r8">23588584154</Timestamp><Current dt:dt="r8">0</Current><DateUtc dt:dt="string">2018-02-22T01:32:40Z</DateUtc></FrequencyChange></FrequencyChanges></Clock>\n	Assim_main_chinese_500ms-111-1	60.016	1.0.0.76	1	2113923652	Professional	2.0.10.353	2.0.10.353	02-22-2018	22-Feb-18 1:32:40 AM	12:32:40	2.0.10.248	11	4	1	1																																block4	explist														19																17	1	19										1		0	100	229864	1499		0	0	0	4	0	20	231630	0	7	1613	233243	1		0	19	233263	0		0	0	Thai_F4_mii241-5	0		0	-1	231363	0	j	247	231610	exproc	block4list	F4	mii	5	241
Assim_main_chinese_500ms	111	1	<?xml version="1.0"?>\n<Clock xmlns:dt="urn:schemas-microsoft-com:datatypes"><Description dt:dt="string">E-Prime Primary Realtime Clock</Description><StartTime><Timestamp dt:dt="int">0</Timestamp><DateUtc dt:dt="string">2018-02-22T01:32:40Z</DateUtc></StartTime><FrequencyChanges><FrequencyChange><Frequency dt:dt="r8">2742373</Frequency><Timestamp dt:dt="r8">23588584154</Timestamp><Current dt:dt="r8">0</Current><DateUtc dt:dt="string">2018-02-22T01:32:40Z</DateUtc></FrequencyChange></FrequencyChanges></Clock>\n	Assim_main_chinese_500ms-111-1	60.016	1.0.0.76	1	2113923652	Professional	2.0.10.353	2.0.10.353	02-22-2018	22-Feb-18 1:32:40 AM	12:32:40	2.0.10.248	11	4	1	1																																block4	explist														20																19	1	20										1		0	83	234346	1499		0	0	0	4	1	17	236095	0	7	1421	237516	1		0	26	237545	0		0	0	Thai_F4_mii33-6	0		1	-1	235845	0	f	233	236078	exproc	block4list	F4	mii	6	33
Assim_main_chinese_500ms	111	1	<?xml version="1.0"?>\n<Clock xmlns:dt="urn:schemas-microsoft-com:datatypes"><Description dt:dt="string">E-Prime Primary Realtime Clock</Description><StartTime><Timestamp dt:dt="int">0</Timestamp><DateUtc dt:dt="string">2018-02-22T01:32:40Z</DateUtc></StartTime><FrequencyChanges><FrequencyChange><Frequency dt:dt="r8">2742373</Frequency><Timestamp dt:dt="r8">23588584154</Timestamp><Current dt:dt="r8">0</Current><DateUtc dt:dt="string">2018-02-22T01:32:40Z</DateUtc></FrequencyChange></FrequencyChanges></Clock>\n	Assim_main_chinese_500ms-111-1	60.016	1.0.0.76	1	2113923652	Professional	2.0.10.353	2.0.10.353	02-22-2018	22-Feb-18 1:32:40 AM	12:32:40	2.0.10.248	12	7	1	2																																block7	explist														1																									14	1	1	1		0	88	245676	1500		0	0	0	4	0	17	247476	0	7	1457	248933	1		0	23	248959	0		0	0	Thai_F4_maa33-1	0		0	0	247176	0	f	283	247459	exproc	block7list	F4	maa	1	33
Assim_main_chinese_500ms	111	1	<?xml version="1.0"?>\n<Clock xmlns:dt="urn:schemas-microsoft-com:datatypes"><Description dt:dt="string">E-Prime Primary Realtime Clock</Description><StartTime><Timestamp dt:dt="int">0</Timestamp><DateUtc dt:dt="string">2018-02-22T01:32:40Z</DateUtc></StartTime><FrequencyChanges><FrequencyChange><Frequency dt:dt="r8">2742373</Frequency><Timestamp dt:dt="r8">23588584154</Timestamp><Current dt:dt="r8">0</Current><DateUtc dt:dt="string">2018-02-22T01:32:40Z</DateUtc></FrequencyChange></FrequencyChanges></Clock>\n	Assim_main_chinese_500ms-111-1	60.016	1.0.0.76	1	2113923652	Professional	2.0.10.353	2.0.10.353	02-22-2018	22-Feb-18 1:32:40 AM	12:32:40	2.0.10.248	12	7	1	2																																block7	explist														2																									17	1	2	1		0	83	250042	1499		0	0	0	4	1	5	251741	0	7	1404	253145	1		0	10	253158	0		0	0	Thai_F4_mii241-2	0		0	-1	251541	0	j	195	251736	exproc	block7list	F4	mii	2	241
Assim_main_chinese_500ms	111	1	<?xml version="1.0"?>\n<Clock xmlns:dt="urn:schemas-microsoft-com:datatypes"><Description dt:dt="string">E-Prime Primary Realtime Clock</Description><StartTime><Timestamp dt:dt="int">0</Timestamp><DateUtc dt:dt="string">2018-02-22T01:32:40Z</DateUtc></StartTime><FrequencyChanges><FrequencyChange><Frequency dt:dt="r8">2742373</Frequency><Timestamp dt:dt="r8">23588584154</Timestamp><Current dt:dt="r8">0</Current><DateUtc dt:dt="string">2018-02-22T01:32:40Z</DateUtc></FrequencyChange></FrequencyChanges></Clock>\n	Assim_main_chinese_500ms-111-1	60.016	1.0.0.76	1	2113923652	Professional	2.0.10.353	2.0.10.353	02-22-2018	22-Feb-18 1:32:40 AM	12:32:40	2.0.10.248	12	7	1	2																																block7	explist														3																									5	1	3	1		0	99	254257	1500		0	0	0	4	0	20	256207	0	7	1512	257719	1		0	17	257740	0		0	0	Thai_F2_maa45-1	0		0	0	255757	0	h	430	256187	exproc	block7list	F2	maa	1	45
Assim_main_chinese_500ms	111	1	<?xml version="1.0"?>\n<Clock xmlns:dt="urn:schemas-microsoft-com:datatypes"><Description dt:dt="string">E-Prime Primary Realtime Clock</Description><StartTime><Timestamp dt:dt="int">0</Timestamp><DateUtc dt:dt="string">2018-02-22T01:32:40Z</DateUtc></StartTime><FrequencyChanges><FrequencyChange><Frequency dt:dt="r8">2742373</Frequency><Timestamp dt:dt="r8">23588584154</Timestamp><Current dt:dt="r8">0</Current><DateUtc dt:dt="string">2018-02-22T01:32:40Z</DateUtc></FrequencyChange></FrequencyChanges></Clock>\n	Assim_main_chinese_500ms-111-1	60.016	1.0.0.76	1	2113923652	Professional	2.0.10.353	2.0.10.353	02-22-2018	22-Feb-18 1:32:40 AM	12:32:40	2.0.10.248	12	7	1	2																																block7	explist														4																									18	1	4	1		0	83	258823	1499		0	0	0	4	0	5	260539	0	7	1379	261918	1		0	18	261939	0		0	0	Thai_F4_mii315-4	0		0	-1	260322	0	h	212	260534	exproc	block7list	F4	mii	4	315
Assim_main_chinese_500ms	111	1	<?xml version="1.0"?>\n<Clock xmlns:dt="urn:schemas-microsoft-com:datatypes"><Description dt:dt="string">E-Prime Primary Realtime Clock</Description><StartTime><Timestamp dt:dt="int">0</Timestamp><DateUtc dt:dt="string">2018-02-22T01:32:40Z</DateUtc></StartTime><FrequencyChanges><FrequencyChange><Frequency dt:dt="r8">2742373</Frequency><Timestamp dt:dt="r8">23588584154</Timestamp><Current dt:dt="r8">0</Current><DateUtc dt:dt="string">2018-02-22T01:32:40Z</DateUtc></FrequencyChange></FrequencyChanges></Clock>\n	Assim_main_chinese_500ms-111-1	60.016	1.0.0.76	1	2113923652	Professional	2.0.10.353	2.0.10.353	02-22-2018	22-Feb-18 1:32:40 AM	12:32:40	2.0.10.248	12	7	1	2																																block7	explist														5																									2	1	5	1		0	99	263038	1500		0	0	0	4	1	11	265254	0	7	1640	266894	1		0	25	266921	0		0	0	Thai_F2_maa241-3	0		0	0	264538	0	j	705	265243	exproc	block7list	F2	maa	3	241
Assim_main_chinese_500ms	111	1	<?xml version="1.0"?>\n<Clock xmlns:dt="urn:schemas-microsoft-com:datatypes"><Description dt:dt="string">E-Prime Primary Realtime Clock</Description><StartTime><Timestamp dt:dt="int">0</Timestamp><DateUtc dt:dt="string">2018-02-22T01:32:40Z</DateUtc></StartTime><FrequencyChanges><FrequencyChange><Frequency dt:dt="r8">2742373</Frequency><Timestamp dt:dt="r8">23588584154</Timestamp><Current dt:dt="r8">0</Current><DateUtc dt:dt="string">2018-02-22T01:32:40Z</DateUtc></FrequencyChange></FrequencyChanges></Clock>\n	Assim_main_chinese_500ms-111-1	60.016	1.0.0.76	1	2113923652	Professional	2.0.10.353	2.0.10.353	02-22-2018	22-Feb-18 1:32:40 AM	12:32:40	2.0.10.248	12	7	1	2																																block7	explist														6																									13	1	6	1		1	99	268020	1500		0	0	0	4	1	18	270236	0	7	1379	271615	1		0	21	271636	0		0	0	Thai_F4_maa315-5	0		0	0	269520	0	h	698	270218	exproc	block7list	F4	maa	5	315
Assim_main_chinese_500ms	111	1	<?xml version="1.0"?>\n<Clock xmlns:dt="urn:schemas-microsoft-com:datatypes"><Description dt:dt="string">E-Prime Primary Realtime Clock</Description><StartTime><Timestamp dt:dt="int">0</Timestamp><DateUtc dt:dt="string">2018-02-22T01:32:40Z</DateUtc></StartTime><FrequencyChanges><FrequencyChange><Frequency dt:dt="r8">2742373</Frequency><Timestamp dt:dt="r8">23588584154</Timestamp><Current dt:dt="r8">0</Current><DateUtc dt:dt="string">2018-02-22T01:32:40Z</DateUtc></FrequencyChange></FrequencyChanges></Clock>\n	Assim_main_chinese_500ms-111-1	60.016	1.0.0.76	1	2113923652	Professional	2.0.10.353	2.0.10.353	02-22-2018	22-Feb-18 1:32:40 AM	12:32:40	2.0.10.248	12	7	1	2																																block7	explist														7																									1	1	7	1		0	83	272719	1500		0	0	0	4	0	16	275069	0	7	2873	277942	1		0	25	277968	0		0	0	Thai_F2_maa21-1	0		0	0	274219	0	j	834	275053	exproc	block7list	F2	maa	1	21
Assim_main_chinese_500ms	111	1	<?xml version="1.0"?>\n<Clock xmlns:dt="urn:schemas-microsoft-com:datatypes"><Description dt:dt="string">E-Prime Primary Realtime Clock</Description><StartTime><Timestamp dt:dt="int">0</Timestamp><DateUtc dt:dt="string">2018-02-22T01:32:40Z</DateUtc></StartTime><FrequencyChanges><FrequencyChange><Frequency dt:dt="r8">2742373</Frequency><Timestamp dt:dt="r8">23588584154</Timestamp><Current dt:dt="r8">0</Current><DateUtc dt:dt="string">2018-02-22T01:32:40Z</DateUtc></FrequencyChange></FrequencyChanges></Clock>\n	Assim_main_chinese_500ms-111-1	60.016	1.0.0.76	1	2113923652	Professional	2.0.10.353	2.0.10.353	02-22-2018	22-Feb-18 1:32:40 AM	12:32:40	2.0.10.248	12	7	1	2																																block7	explist														8																									11	1	8	1		0	100	279068	1499		0	0	0	4	1	13	282083	0	3	2077	284160	1		0	22	284183	0		0	0	Thai_F4_maa21-1	0		0	-1	280567	0	j	1503	282070	exproc	block7list	F4	maa	1	21
Assim_main_chinese_500ms	111	1	<?xml version="1.0"?>\n<Clock xmlns:dt="urn:schemas-microsoft-com:datatypes"><Description dt:dt="string">E-Prime Primary Realtime Clock</Description><StartTime><Timestamp dt:dt="int">0</Timestamp><DateUtc dt:dt="string">2018-02-22T01:32:40Z</DateUtc></StartTime><FrequencyChanges><FrequencyChange><Frequency dt:dt="r8">2742373</Frequency><Timestamp dt:dt="r8">23588584154</Timestamp><Current dt:dt="r8">0</Current><DateUtc dt:dt="string">2018-02-22T01:32:40Z</DateUtc></FrequencyChange></FrequencyChanges></Clock>\n	Assim_main_chinese_500ms-111-1	60.016	1.0.0.76	1	2113923652	Professional	2.0.10.353	2.0.10.353	02-22-2018	22-Feb-18 1:32:40 AM	12:32:40	2.0.10.248	12	7	1	2																																block7	explist														9																									15	1	9	1		0	83	285266	1500		0	0	0	4	0	21	287099	0	7	2145	289244	1		0	19	289265	0		0	0	Thai_F4_maa45-3	0		0	0	286766	0	h	312	287078	exproc	block7list	F4	maa	3	45
Assim_main_chinese_500ms	111	1	<?xml version="1.0"?>\n<Clock xmlns:dt="urn:schemas-microsoft-com:datatypes"><Description dt:dt="string">E-Prime Primary Realtime Clock</Description><StartTime><Timestamp dt:dt="int">0</Timestamp><DateUtc dt:dt="string">2018-02-22T01:32:40Z</DateUtc></StartTime><FrequencyChanges><FrequencyChange><Frequency dt:dt="r8">2742373</Frequency><Timestamp dt:dt="r8">23588584154</Timestamp><Current dt:dt="r8">0</Current><DateUtc dt:dt="string">2018-02-22T01:32:40Z</DateUtc></FrequencyChange></FrequencyChanges></Clock>\n	Assim_main_chinese_500ms-111-1	60.016	1.0.0.76	1	2113923652	Professional	2.0.10.353	2.0.10.353	02-22-2018	22-Feb-18 1:32:40 AM	12:32:40	2.0.10.248	12	7	1	2																																block7	explist														10																									4	1	10	1		0	100	290365	1499		0	0	1	4	0	19	292514	0	4	1879	294393	1		0	18	294414	0		0	0	Thai_F2_maa33-2	0		0	-1	291864	0	f	631	292495	exproc	block7list	F2	maa	2	33
Assim_main_chinese_500ms	111	1	<?xml version="1.0"?>\n<Clock xmlns:dt="urn:schemas-microsoft-com:datatypes"><Description dt:dt="string">E-Prime Primary Realtime Clock</Description><StartTime><Timestamp dt:dt="int">0</Timestamp><DateUtc dt:dt="string">2018-02-22T01:32:40Z</DateUtc></StartTime><FrequencyChanges><FrequencyChange><Frequency dt:dt="r8">2742373</Frequency><Timestamp dt:dt="r8">23588584154</Timestamp><Current dt:dt="r8">0</Current><DateUtc dt:dt="string">2018-02-22T01:32:40Z</DateUtc></FrequencyChange></FrequencyChanges></Clock>\n	Assim_main_chinese_500ms-111-1	60.016	1.0.0.76	1	2113923652	Professional	2.0.10.353	2.0.10.353	02-22-2018	22-Feb-18 1:32:40 AM	12:32:40	2.0.10.248	12	7	1	2																																block7	explist														11																									19	1	11	1		0	99	295513	1500		0	0	0	4	1	5	297829	0	3	1952	299781	1		0	27	299812	0		0	0	Thai_F4_mii33-5	0		0	0	297013	0	f	811	297824	exproc	block7list	F4	mii	5	33
Assim_main_chinese_500ms	111	1	<?xml version="1.0"?>\n<Clock xmlns:dt="urn:schemas-microsoft-com:datatypes"><Description dt:dt="string">E-Prime Primary Realtime Clock</Description><StartTime><Timestamp dt:dt="int">0</Timestamp><DateUtc dt:dt="string">2018-02-22T01:32:40Z</DateUtc></StartTime><FrequencyChanges><FrequencyChange><Frequency dt:dt="r8">2742373</Frequency><Timestamp dt:dt="r8">23588584154</Timestamp><Current dt:dt="r8">0</Current><DateUtc dt:dt="string">2018-02-22T01:32:40Z</DateUtc></FrequencyChange></FrequencyChanges></Clock>\n	Assim_main_chinese_500ms-111-1	60.016	1.0.0.76	1	2113923652	Professional	2.0.10.353	2.0.10.353	02-22-2018	22-Feb-18 1:32:40 AM	12:32:40	2.0.10.248	12	7	1	2																																block7	explist														12																									12	1	12	1		0	83	300895	1500		0	0	0	4	0	13	303661	0	6	1688	305349	1		0	9	305361	0		0	0	Thai_F4_maa241-5	0		0	0	302395	0	f	1253	303648	exproc	block7list	F4	maa	5	241
Assim_main_chinese_500ms	111	1	<?xml version="1.0"?>\n<Clock xmlns:dt="urn:schemas-microsoft-com:datatypes"><Description dt:dt="string">E-Prime Primary Realtime Clock</Description><StartTime><Timestamp dt:dt="int">0</Timestamp><DateUtc dt:dt="string">2018-02-22T01:32:40Z</DateUtc></StartTime><FrequencyChanges><FrequencyChange><Frequency dt:dt="r8">2742373</Frequency><Timestamp dt:dt="r8">23588584154</Timestamp><Current dt:dt="r8">0</Current><DateUtc dt:dt="string">2018-02-22T01:32:40Z</DateUtc></FrequencyChange></FrequencyChanges></Clock>\n	Assim_main_chinese_500ms-111-1	60.016	1.0.0.76	1	2113923652	Professional	2.0.10.353	2.0.10.353	02-22-2018	22-Feb-18 1:32:40 AM	12:32:40	2.0.10.248	12	7	1	2																																block7	explist														13																									6	1	13	1		0	83	306444	1499		0	0	0	4	0	9	308893	0	5	1531	310424	1		0	17	310443	0		0	0	Thai_F2_mii21-2	0		0	-1	307943	0	j	941	308884	exproc	block7list	F2	mii	2	21
Assim_main_chinese_500ms	111	1	<?xml version="1.0"?>\n<Clock xmlns:dt="urn:schemas-microsoft-com:datatypes"><Description dt:dt="string">E-Prime Primary Realtime Clock</Description><StartTime><Timestamp dt:dt="int">0</Timestamp><DateUtc dt:dt="string">2018-02-22T01:32:40Z</DateUtc></StartTime><FrequencyChanges><FrequencyChange><Frequency dt:dt="r8">2742373</Frequency><Timestamp dt:dt="r8">23588584154</Timestamp><Current dt:dt="r8">0</Current><DateUtc dt:dt="string">2018-02-22T01:32:40Z</DateUtc></FrequencyChange></FrequencyChanges></Clock>\n	Assim_main_chinese_500ms-111-1	60.016	1.0.0.76	1	2113923652	Professional	2.0.10.353	2.0.10.353	02-22-2018	22-Feb-18 1:32:40 AM	12:32:40	2.0.10.248	12	7	1	2																																block7	explist														14																									16	1	14	1		0	99	311542	1500		0	0	1	4	0	8	313692	0	4	1534	315226	1		0	12	315241	0		0	0	Thai_F4_mii21-2	0		0	0	313042	0	j	642	313684	exproc	block7list	F4	mii	2	21
Assim_main_chinese_500ms	111	1	<?xml version="1.0"?>\n<Clock xmlns:dt="urn:schemas-microsoft-com:datatypes"><Description dt:dt="string">E-Prime Primary Realtime Clock</Description><StartTime><Timestamp dt:dt="int">0</Timestamp><DateUtc dt:dt="string">2018-02-22T01:32:40Z</DateUtc></StartTime><FrequencyChanges><FrequencyChange><Frequency dt:dt="r8">2742373</Frequency><Timestamp dt:dt="r8">23588584154</Timestamp><Current dt:dt="r8">0</Current><DateUtc dt:dt="string">2018-02-22T01:32:40Z</DateUtc></FrequencyChange></FrequencyChanges></Clock>\n	Assim_main_chinese_500ms-111-1	60.016	1.0.0.76	1	2113923652	Professional	2.0.10.353	2.0.10.353	02-22-2018	22-Feb-18 1:32:40 AM	12:32:40	2.0.10.248	12	7	1	2																																block7	explist														15																									7	1	15	1		0	100	316341	1500		0	0	0	4	0	6	318841	0	7	1528	320369	1		0	17	320390	0		0	0	Thai_F2_mii241-2	0		0	0	317841	0	j	994	318835	exproc	block7list	F2	mii	2	241
Assim_main_chinese_500ms	111	1	<?xml version="1.0"?>\n<Clock xmlns:dt="urn:schemas-microsoft-com:datatypes"><Description dt:dt="string">E-Prime Primary Realtime Clock</Description><StartTime><Timestamp dt:dt="int">0</Timestamp><DateUtc dt:dt="string">2018-02-22T01:32:40Z</DateUtc></StartTime><FrequencyChanges><FrequencyChange><Frequency dt:dt="r8">2742373</Frequency><Timestamp dt:dt="r8">23588584154</Timestamp><Current dt:dt="r8">0</Current><DateUtc dt:dt="string">2018-02-22T01:32:40Z</DateUtc></FrequencyChange></FrequencyChanges></Clock>\n	Assim_main_chinese_500ms-111-1	60.016	1.0.0.76	1	2113923652	Professional	2.0.10.353	2.0.10.353	02-22-2018	22-Feb-18 1:32:40 AM	12:32:40	2.0.10.248	12	7	1	2																																block7	explist														16																									20	1	16	1		1	116	321506	1500		0	0	0	4	0	9	323239	0	7	1535	324774	1		0	13	324789	0		0	0	Thai_F4_mii45-2	0		0	0	323006	0	h	224	323230	exproc	block7list	F4	mii	2	45
Assim_main_chinese_500ms	111	1	<?xml version="1.0"?>\n<Clock xmlns:dt="urn:schemas-microsoft-com:datatypes"><Description dt:dt="string">E-Prime Primary Realtime Clock</Description><StartTime><Timestamp dt:dt="int">0</Timestamp><DateUtc dt:dt="string">2018-02-22T01:32:40Z</DateUtc></StartTime><FrequencyChanges><FrequencyChange><Frequency dt:dt="r8">2742373</Frequency><Timestamp dt:dt="r8">23588584154</Timestamp><Current dt:dt="r8">0</Current><DateUtc dt:dt="string">2018-02-22T01:32:40Z</DateUtc></FrequencyChange></FrequencyChanges></Clock>\n	Assim_main_chinese_500ms-111-1	60.016	1.0.0.76	1	2113923652	Professional	2.0.10.353	2.0.10.353	02-22-2018	22-Feb-18 1:32:40 AM	12:32:40	2.0.10.248	12	7	1	2																																block7	explist														17																									10	1	17	1		0	100	325889	1499		0	0	0	4	0	19	327938	0	6	1177	329115	1		0	21	329138	0		0	0	Thai_F2_mii45-2	0		0	-1	327388	0	g	530	327918	exproc	block7list	F2	mii	2	45
Assim_main_chinese_500ms	111	1	<?xml version="1.0"?>\n<Clock xmlns:dt="urn:schemas-microsoft-com:datatypes"><Description dt:dt="string">E-Prime Primary Realtime Clock</Description><StartTime><Timestamp dt:dt="int">0</Timestamp><DateUtc dt:dt="string">2018-02-22T01:32:40Z</DateUtc></StartTime><FrequencyChanges><FrequencyChange><Frequency dt:dt="r8">2742373</Frequency><Timestamp dt:dt="r8">23588584154</Timestamp><Current dt:dt="r8">0</Current><DateUtc dt:dt="string">2018-02-22T01:32:40Z</DateUtc></FrequencyChange></FrequencyChanges></Clock>\n	Assim_main_chinese_500ms-111-1	60.016	1.0.0.76	1	2113923652	Professional	2.0.10.353	2.0.10.353	02-22-2018	22-Feb-18 1:32:40 AM	12:32:40	2.0.10.248	12	7	1	2																																block7	explist														18																									9	1	18	1		0	83	330221	1499		0	0	0	4	0	11	331737	0	7	1243	332980	1		0	22	333003	0		0	0	Thai_F2_mii33-3	0		1	-1	331720	0	j	6	331726	exproc	block7list	F2	mii	3	33
Assim_main_chinese_500ms	111	1	<?xml version="1.0"?>\n<Clock xmlns:dt="urn:schemas-microsoft-com:datatypes"><Description dt:dt="string">E-Prime Primary Realtime Clock</Description><StartTime><Timestamp dt:dt="int">0</Timestamp><DateUtc dt:dt="string">2018-02-22T01:32:40Z</DateUtc></StartTime><FrequencyChanges><FrequencyChange><Frequency dt:dt="r8">2742373</Frequency><Timestamp dt:dt="r8">23588584154</Timestamp><Current dt:dt="r8">0</Current><DateUtc dt:dt="string">2018-02-22T01:32:40Z</DateUtc></FrequencyChange></FrequencyChanges></Clock>\n	Assim_main_chinese_500ms-111-1	60.016	1.0.0.76	1	2113923652	Professional	2.0.10.353	2.0.10.353	02-22-2018	22-Feb-18 1:32:40 AM	12:32:40	2.0.10.248	12	7	1	2																																block7	explist														19																									3	1	19	1		0	84	334087	1499		0	0	0	4	0	12	335603	0	7	1416	337019	1		0	14	337036	0		0	0	Thai_F2_maa315-2	0		0	-1	335586	0	h	5	335591	exproc	block7list	F2	maa	2	315
Assim_main_chinese_500ms	111	1	<?xml version="1.0"?>\n<Clock xmlns:dt="urn:schemas-microsoft-com:datatypes"><Description dt:dt="string">E-Prime Primary Realtime Clock</Description><StartTime><Timestamp dt:dt="int">0</Timestamp><DateUtc dt:dt="string">2018-02-22T01:32:40Z</DateUtc></StartTime><FrequencyChanges><FrequencyChange><Frequency dt:dt="r8">2742373</Frequency><Timestamp dt:dt="r8">23588584154</Timestamp><Current dt:dt="r8">0</Current><DateUtc dt:dt="string">2018-02-22T01:32:40Z</DateUtc></FrequencyChange></FrequencyChanges></Clock>\n	Assim_main_chinese_500ms-111-1	60.016	1.0.0.76	1	2113923652	Professional	2.0.10.353	2.0.10.353	02-22-2018	22-Feb-18 1:32:40 AM	12:32:40	2.0.10.248	12	7	1	2																																block7	explist														20																									8	1	20	1		1	99	338135	1500		0	0	0	4	0	19	340085	0	7	1596	341681	1		0	18	341701	0		0	0	Thai_F2_mii315-1	0		0	0	339635	0	h	431	340066	exproc	block7list	F2	mii	1	315
Assim_main_chinese_500ms	111	1	<?xml version="1.0"?>\n<Clock xmlns:dt="urn:schemas-microsoft-com:datatypes"><Description dt:dt="string">E-Prime Primary Realtime Clock</Description><StartTime><Timestamp dt:dt="int">0</Timestamp><DateUtc dt:dt="string">2018-02-22T01:32:40Z</DateUtc></StartTime><FrequencyChanges><FrequencyChange><Frequency dt:dt="r8">2742373</Frequency><Timestamp dt:dt="r8">23588584154</Timestamp><Current dt:dt="r8">0</Current><DateUtc dt:dt="string">2018-02-22T01:32:40Z</DateUtc></FrequencyChange></FrequencyChanges></Clock>\n	Assim_main_chinese_500ms-111-1	60.016	1.0.0.76	1	2113923652	Professional	2.0.10.353	2.0.10.353	02-22-2018	22-Feb-18 1:32:40 AM	12:32:40	2.0.10.248	13	3	1	3																																block3	explist														1													7	1	1													0		0	89	359363	1500	j	1374	360737	0	4	0	-1	363862	0	7	816	364678	1		0	16	364695	0		0	0	Thai_F2_mii241-2	1		0	0	360863	2999		0	0	exproc	block3list	F2	mii	2	241
Assim_main_chinese_500ms	111	1	<?xml version="1.0"?>\n<Clock xmlns:dt="urn:schemas-microsoft-com:datatypes"><Description dt:dt="string">E-Prime Primary Realtime Clock</Description><StartTime><Timestamp dt:dt="int">0</Timestamp><DateUtc dt:dt="string">2018-02-22T01:32:40Z</DateUtc></StartTime><FrequencyChanges><FrequencyChange><Frequency dt:dt="r8">2742373</Frequency><Timestamp dt:dt="r8">23588584154</Timestamp><Current dt:dt="r8">0</Current><DateUtc dt:dt="string">2018-02-22T01:32:40Z</DateUtc></FrequencyChange></FrequencyChanges></Clock>\n	Assim_main_chinese_500ms-111-1	60.016	1.0.0.76	1	2113923652	Professional	2.0.10.353	2.0.10.353	02-22-2018	22-Feb-18 1:32:40 AM	12:32:40	2.0.10.248	13	3	1	3																																block3	explist														2													3	1	2													0		0	100	365795	1500	j	154	365949	0	4	0	21	367411	0	1	1718	369129	1		0	12	369144	0		0	0	Thai_F2_maa315-2	0		0	0	367295	0	j	95	367390	exproc	block3list	F2	maa	2	315
Assim_main_chinese_500ms	111	1	<?xml version="1.0"?>\n<Clock xmlns:dt="urn:schemas-microsoft-com:datatypes"><Description dt:dt="string">E-Prime Primary Realtime Clock</Description><StartTime><Timestamp dt:dt="int">0</Timestamp><DateUtc dt:dt="string">2018-02-22T01:32:40Z</DateUtc></StartTime><FrequencyChanges><FrequencyChange><Frequency dt:dt="r8">2742373</Frequency><Timestamp dt:dt="r8">23588584154</Timestamp><Current dt:dt="r8">0</Current><DateUtc dt:dt="string">2018-02-22T01:32:40Z</DateUtc></FrequencyChange></FrequencyChanges></Clock>\n	Assim_main_chinese_500ms-111-1	60.016	1.0.0.76	1	2113923652	Professional	2.0.10.353	2.0.10.353	02-22-2018	22-Feb-18 1:32:40 AM	12:32:40	2.0.10.248	13	3	1	3																																block3	explist														3													18	1	3													1		0	83	370227	1500		0	0	0	4	0	9	372343	0	7	1467	373810	1		0	15	373826	0		0	0	Thai_F2_mii315-5	0		0	0	371727	0	g	606	372333	exproc	block3list	F2	mii	5	315
Assim_main_chinese_500ms	111	1	<?xml version="1.0"?>\n<Clock xmlns:dt="urn:schemas-microsoft-com:datatypes"><Description dt:dt="string">E-Prime Primary Realtime Clock</Description><StartTime><Timestamp dt:dt="int">0</Timestamp><DateUtc dt:dt="string">2018-02-22T01:32:40Z</DateUtc></StartTime><FrequencyChanges><FrequencyChange><Frequency dt:dt="r8">2742373</Frequency><Timestamp dt:dt="r8">23588584154</Timestamp><Current dt:dt="r8">0</Current><DateUtc dt:dt="string">2018-02-22T01:32:40Z</DateUtc></FrequencyChange></FrequencyChanges></Clock>\n	Assim_main_chinese_500ms-111-1	60.016	1.0.0.76	1	2113923652	Professional	2.0.10.353	2.0.10.353	02-22-2018	22-Feb-18 1:32:40 AM	12:32:40	2.0.10.248	13	3	1	3																																block3	explist														4													9	1	4													1		0	100	374926	1499		0	0	0	4	0	11	376825	0	6	1713	378538	1		0	18	378558	0		0	0	Thai_F2_mii33-3	0		1	-1	376425	0	j	389	376814	exproc	block3list	F2	mii	3	33
Assim_main_chinese_500ms	111	1	<?xml version="1.0"?>\n<Clock xmlns:dt="urn:schemas-microsoft-com:datatypes"><Description dt:dt="string">E-Prime Primary Realtime Clock</Description><StartTime><Timestamp dt:dt="int">0</Timestamp><DateUtc dt:dt="string">2018-02-22T01:32:40Z</DateUtc></StartTime><FrequencyChanges><FrequencyChange><Frequency dt:dt="r8">2742373</Frequency><Timestamp dt:dt="r8">23588584154</Timestamp><Current dt:dt="r8">0</Current><DateUtc dt:dt="string">2018-02-22T01:32:40Z</DateUtc></FrequencyChange></FrequencyChanges></Clock>\n	Assim_main_chinese_500ms-111-1	60.016	1.0.0.76	1	2113923652	Professional	2.0.10.353	2.0.10.353	02-22-2018	22-Feb-18 1:32:40 AM	12:32:40	2.0.10.248	13	3	1	3																																block3	explist														5													13	1	5													1		0	83	379641	1500		0	0	0	4	0	10	381358	0	7	1108	382466	1		0	23	382491	0		0	0	Thai_F2_maa315-3	0		0	0	381141	0	h	207	381348	exproc	block3list	F2	maa	3	315
Assim_main_chinese_500ms	111	1	<?xml version="1.0"?>\n<Clock xmlns:dt="urn:schemas-microsoft-com:datatypes"><Description dt:dt="string">E-Prime Primary Realtime Clock</Description><StartTime><Timestamp dt:dt="int">0</Timestamp><DateUtc dt:dt="string">2018-02-22T01:32:40Z</DateUtc></StartTime><FrequencyChanges><FrequencyChange><Frequency dt:dt="r8">2742373</Frequency><Timestamp dt:dt="r8">23588584154</Timestamp><Current dt:dt="r8">0</Current><DateUtc dt:dt="string">2018-02-22T01:32:40Z</DateUtc></FrequencyChange></FrequencyChanges></Clock>\n	Assim_main_chinese_500ms-111-1	60.016	1.0.0.76	1	2113923652	Professional	2.0.10.353	2.0.10.353	02-22-2018	22-Feb-18 1:32:40 AM	12:32:40	2.0.10.248	13	3	1	3																																block3	explist														6													4	1	6													1		0	99	383590	1500		0	0	0	4	0	14	385157	0	7	1212	386369	1		0	17	386390	0		0	0	Thai_F2_maa33-2	0		0	0	385090	0	f	53	385143	exproc	block3list	F2	maa	2	33
Assim_main_chinese_500ms	111	1	<?xml version="1.0"?>\n<Clock xmlns:dt="urn:schemas-microsoft-com:datatypes"><Description dt:dt="string">E-Prime Primary Realtime Clock</Description><StartTime><Timestamp dt:dt="int">0</Timestamp><DateUtc dt:dt="string">2018-02-22T01:32:40Z</DateUtc></StartTime><FrequencyChanges><FrequencyChange><Frequency dt:dt="r8">2742373</Frequency><Timestamp dt:dt="r8">23588584154</Timestamp><Current dt:dt="r8">0</Current><DateUtc dt:dt="string">2018-02-22T01:32:40Z</DateUtc></FrequencyChange></FrequencyChanges></Clock>\n	Assim_main_chinese_500ms-111-1	60.016	1.0.0.76	1	2113923652	Professional	2.0.10.353	2.0.10.353	02-22-2018	22-Feb-18 1:32:40 AM	12:32:40	2.0.10.248	13	3	1	3																																block3	explist														7													20	1	7													1		0	99	387489	1500		0	0	0	4	0	17	389289	0	6	1418	390707	1		0	14	390722	0		0	0	Thai_F2_mii45-3	0		0	0	388989	0	h	283	389272	exproc	block3list	F2	mii	3	45
Assim_main_chinese_500ms	111	1	<?xml version="1.0"?>\n<Clock xmlns:dt="urn:schemas-microsoft-com:datatypes"><Description dt:dt="string">E-Prime Primary Realtime Clock</Description><StartTime><Timestamp dt:dt="int">0</Timestamp><DateUtc dt:dt="string">2018-02-22T01:32:40Z</DateUtc></StartTime><FrequencyChanges><FrequencyChange><Frequency dt:dt="r8">2742373</Frequency><Timestamp dt:dt="r8">23588584154</Timestamp><Current dt:dt="r8">0</Current><DateUtc dt:dt="string">2018-02-22T01:32:40Z</DateUtc></FrequencyChange></FrequencyChanges></Clock>\n	Assim_main_chinese_500ms-111-1	60.016	1.0.0.76	1	2113923652	Professional	2.0.10.353	2.0.10.353	02-22-2018	22-Feb-18 1:32:40 AM	12:32:40	2.0.10.248	13	3	1	3																																block3	explist														8													19	1	8													1		0	116	391838	1500		0	0	1	4	0	16	394004	0	4	1428	395432	1		0	19	395454	0		0	0	Thai_F2_mii33-5	0		0	0	393338	0	j	650	393988	exproc	block3list	F2	mii	5	33
Assim_main_chinese_500ms	111	1	<?xml version="1.0"?>\n<Clock xmlns:dt="urn:schemas-microsoft-com:datatypes"><Description dt:dt="string">E-Prime Primary Realtime Clock</Description><StartTime><Timestamp dt:dt="int">0</Timestamp><DateUtc dt:dt="string">2018-02-22T01:32:40Z</DateUtc></StartTime><FrequencyChanges><FrequencyChange><Frequency dt:dt="r8">2742373</Frequency><Timestamp dt:dt="r8">23588584154</Timestamp><Current dt:dt="r8">0</Current><DateUtc dt:dt="string">2018-02-22T01:32:40Z</DateUtc></FrequencyChange></FrequencyChanges></Clock>\n	Assim_main_chinese_500ms-111-1	60.016	1.0.0.76	1	2113923652	Professional	2.0.10.353	2.0.10.353	02-22-2018	22-Feb-18 1:32:40 AM	12:32:40	2.0.10.248	13	3	1	3																																block3	explist														9													2	1	9													1		0	100	396554	1499		0	0	1	4	0	11	398703	0	4	1475	400178	1		0	8	400186	0		0	0	Thai_F2_maa241-3	0		0	-1	398053	0	f	639	398692	exproc	block3list	F2	maa	3	241
Assim_main_chinese_500ms	111	1	<?xml version="1.0"?>\n<Clock xmlns:dt="urn:schemas-microsoft-com:datatypes"><Description dt:dt="string">E-Prime Primary Realtime Clock</Description><StartTime><Timestamp dt:dt="int">0</Timestamp><DateUtc dt:dt="string">2018-02-22T01:32:40Z</DateUtc></StartTime><FrequencyChanges><FrequencyChange><Frequency dt:dt="r8">2742373</Frequency><Timestamp dt:dt="r8">23588584154</Timestamp><Current dt:dt="r8">0</Current><DateUtc dt:dt="string">2018-02-22T01:32:40Z</DateUtc></FrequencyChange></FrequencyChanges></Clock>\n	Assim_main_chinese_500ms-111-1	60.016	1.0.0.76	1	2113923652	Professional	2.0.10.353	2.0.10.353	02-22-2018	22-Feb-18 1:32:40 AM	12:32:40	2.0.10.248	13	3	1	3																																block3	explist														10													16	1	10													1		0	83	401269	1500		0	0	0	4	0	14	403152	0	6	1420	404572	1		0	10	404585	0		0	0	Thai_F2_mii21-5	0		0	0	402769	0	j	369	403138	exproc	block3list	F2	mii	5	21
Assim_main_chinese_500ms	111	1	<?xml version="1.0"?>\n<Clock xmlns:dt="urn:schemas-microsoft-com:datatypes"><Description dt:dt="string">E-Prime Primary Realtime Clock</Description><StartTime><Timestamp dt:dt="int">0</Timestamp><DateUtc dt:dt="string">2018-02-22T01:32:40Z</DateUtc></StartTime><FrequencyChanges><FrequencyChange><Frequency dt:dt="r8">2742373</Frequency><Timestamp dt:dt="r8">23588584154</Timestamp><Current dt:dt="r8">0</Current><DateUtc dt:dt="string">2018-02-22T01:32:40Z</DateUtc></FrequencyChange></FrequencyChanges></Clock>\n	Assim_main_chinese_500ms-111-1	60.016	1.0.0.76	1	2113923652	Professional	2.0.10.353	2.0.10.353	02-22-2018	22-Feb-18 1:32:40 AM	12:32:40	2.0.10.248	13	3	1	3																																block3	explist														11													5	1	11													0		0	83	405668	1499	h	1207	406875	0	4	0	21	407934	0	7	2051	409985	1		0	13	410000	0		0	0	Thai_F2_maa45-1	0		1	-1	407167	0	h	746	407913	exproc	block3list	F2	maa	1	45
Assim_main_chinese_500ms	111	1	<?xml version="1.0"?>\n<Clock xmlns:dt="urn:schemas-microsoft-com:datatypes"><Description dt:dt="string">E-Prime Primary Realtime Clock</Description><StartTime><Timestamp dt:dt="int">0</Timestamp><DateUtc dt:dt="string">2018-02-22T01:32:40Z</DateUtc></StartTime><FrequencyChanges><FrequencyChange><Frequency dt:dt="r8">2742373</Frequency><Timestamp dt:dt="r8">23588584154</Timestamp><Current dt:dt="r8">0</Current><DateUtc dt:dt="string">2018-02-22T01:32:40Z</DateUtc></FrequencyChange></FrequencyChanges></Clock>\n	Assim_main_chinese_500ms-111-1	60.016	1.0.0.76	1	2113923652	Professional	2.0.10.353	2.0.10.353	02-22-2018	22-Feb-18 1:32:40 AM	12:32:40	2.0.10.248	13	3	1	3																																block3	explist														12													10	1	12													1		0	100	411100	1499		0	0	0	4	0	6	412883	0	7	1302	414185	1		0	28	414216	0		0	0	Thai_F2_mii45-2	0		0	-1	412599	0	h	278	412877	exproc	block3list	F2	mii	2	45
Assim_main_chinese_500ms	111	1	<?xml version="1.0"?>\n<Clock xmlns:dt="urn:schemas-microsoft-com:datatypes"><Description dt:dt="string">E-Prime Primary Realtime Clock</Description><StartTime><Timestamp dt:dt="int">0</Timestamp><DateUtc dt:dt="string">2018-02-22T01:32:40Z</DateUtc></StartTime><FrequencyChanges><FrequencyChange><Frequency dt:dt="r8">2742373</Frequency><Timestamp dt:dt="r8">23588584154</Timestamp><Current dt:dt="r8">0</Current><DateUtc dt:dt="string">2018-02-22T01:32:40Z</DateUtc></FrequencyChange></FrequencyChanges></Clock>\n	Assim_main_chinese_500ms-111-1	60.016	1.0.0.76	1	2113923652	Professional	2.0.10.353	2.0.10.353	02-22-2018	22-Feb-18 1:32:40 AM	12:32:40	2.0.10.248	13	3	1	3																																block3	explist														13													14	1	13													1		0	83	415299	1499		0	0	0	4	0	12	417132	0	7	1745	418877	1		0	18	418898	0		0	0	Thai_F2_maa33-5	0		0	-1	416798	0	f	322	417120	exproc	block3list	F2	maa	5	33
Assim_main_chinese_500ms	111	1	<?xml version="1.0"?>\n<Clock xmlns:dt="urn:schemas-microsoft-com:datatypes"><Description dt:dt="string">E-Prime Primary Realtime Clock</Description><StartTime><Timestamp dt:dt="int">0</Timestamp><DateUtc dt:dt="string">2018-02-22T01:32:40Z</DateUtc></StartTime><FrequencyChanges><FrequencyChange><Frequency dt:dt="r8">2742373</Frequency><Timestamp dt:dt="r8">23588584154</Timestamp><Current dt:dt="r8">0</Current><DateUtc dt:dt="string">2018-02-22T01:32:40Z</DateUtc></FrequencyChange></FrequencyChanges></Clock>\n	Assim_main_chinese_500ms-111-1	60.016	1.0.0.76	1	2113923652	Professional	2.0.10.353	2.0.10.353	02-22-2018	22-Feb-18 1:32:40 AM	12:32:40	2.0.10.248	13	3	1	3																																block3	explist														14													6	1	14													1		1	99	419997	1500		0	0	0	4	0	6	421797	0	7	1720	423517	1		0	13	423530	0		0	0	Thai_F2_mii21-2	0		0	0	421497	0	j	294	421791	exproc	block3list	F2	mii	2	21
Assim_main_chinese_500ms	111	1	<?xml version="1.0"?>\n<Clock xmlns:dt="urn:schemas-microsoft-com:datatypes"><Description dt:dt="string">E-Prime Primary Realtime Clock</Description><StartTime><Timestamp dt:dt="int">0</Timestamp><DateUtc dt:dt="string">2018-02-22T01:32:40Z</DateUtc></StartTime><FrequencyChanges><FrequencyChange><Frequency dt:dt="r8">2742373</Frequency><Timestamp dt:dt="r8">23588584154</Timestamp><Current dt:dt="r8">0</Current><DateUtc dt:dt="string">2018-02-22T01:32:40Z</DateUtc></FrequencyChange></FrequencyChanges></Clock>\n	Assim_main_chinese_500ms-111-1	60.016	1.0.0.76	1	2113923652	Professional	2.0.10.353	2.0.10.353	02-22-2018	22-Feb-18 1:32:40 AM	12:32:40	2.0.10.248	13	3	1	3																																block3	explist														15													11	1	15													1		0	100	424630	1499		0	0	0	4	0	6	426646	0	7	1199	427845	1		0	17	427862	0		0	0	Thai_F2_maa21-4	0		0	-1	426129	0	j	511	426640	exproc	block3list	F2	maa	4	21
Assim_main_chinese_500ms	111	1	<?xml version="1.0"?>\n<Clock xmlns:dt="urn:schemas-microsoft-com:datatypes"><Description dt:dt="string">E-Prime Primary Realtime Clock</Description><StartTime><Timestamp dt:dt="int">0</Timestamp><DateUtc dt:dt="string">2018-02-22T01:32:40Z</DateUtc></StartTime><FrequencyChanges><FrequencyChange><Frequency dt:dt="r8">2742373</Frequency><Timestamp dt:dt="r8">23588584154</Timestamp><Current dt:dt="r8">0</Current><DateUtc dt:dt="string">2018-02-22T01:32:40Z</DateUtc></FrequencyChange></FrequencyChanges></Clock>\n	Assim_main_chinese_500ms-111-1	60.016	1.0.0.76	1	2113923652	Professional	2.0.10.353	2.0.10.353	02-22-2018	22-Feb-18 1:32:40 AM	12:32:40	2.0.10.248	13	3	1	3																																block3	explist														16													17	1	16													1		0	83	428945	1500		0	0	0	4	0	10	430478	0	7	963	431441	1		0	16	431461	0		0	0	Thai_F2_mii241-3	0		0	0	430445	0	j	23	430468	exproc	block3list	F2	mii	3	241
Assim_main_chinese_500ms	111	1	<?xml version="1.0"?>\n<Clock xmlns:dt="urn:schemas-microsoft-com:datatypes"><Description dt:dt="string">E-Prime Primary Realtime Clock</Description><StartTime><Timestamp dt:dt="int">0</Timestamp><DateUtc dt:dt="string">2018-02-22T01:32:40Z</DateUtc></StartTime><FrequencyChanges><FrequencyChange><Frequency dt:dt="r8">2742373</Frequency><Timestamp dt:dt="r8">23588584154</Timestamp><Current dt:dt="r8">0</Current><DateUtc dt:dt="string">2018-02-22T01:32:40Z</DateUtc></FrequencyChange></FrequencyChanges></Clock>\n	Assim_main_chinese_500ms-111-1	60.016	1.0.0.76	1	2113923652	Professional	2.0.10.353	2.0.10.353	02-22-2018	22-Feb-18 1:32:40 AM	12:32:40	2.0.10.248	13	3	1	3																																block3	explist														17													8	1	17													1		0	83	432544	1500		0	0	0	4	0	13	434360	0	6	1890	436250	1		0	8	436260	0		0	0	Thai_F2_mii315-1	0		0	0	434044	0	g	302	434346	exproc	block3list	F2	mii	1	315
Assim_main_chinese_500ms	111	1	<?xml version="1.0"?>\n<Clock xmlns:dt="urn:schemas-microsoft-com:datatypes"><Description dt:dt="string">E-Prime Primary Realtime Clock</Description><StartTime><Timestamp dt:dt="int">0</Timestamp><DateUtc dt:dt="string">2018-02-22T01:32:40Z</DateUtc></StartTime><FrequencyChanges><FrequencyChange><Frequency dt:dt="r8">2742373</Frequency><Timestamp dt:dt="r8">23588584154</Timestamp><Current dt:dt="r8">0</Current><DateUtc dt:dt="string">2018-02-22T01:32:40Z</DateUtc></FrequencyChange></FrequencyChanges></Clock>\n	Assim_main_chinese_500ms-111-1	60.016	1.0.0.76	1	2113923652	Professional	2.0.10.353	2.0.10.353	02-22-2018	22-Feb-18 1:32:40 AM	12:32:40	2.0.10.248	13	3	1	3																																block3	explist														18													15	1	18													1		0	100	437360	1499		0	0	0	4	0	20	439392	0	6	1776	441168	1		0	23	441192	0		0	0	Thai_F2_maa45-2	0		0	-1	438859	0	g	513	439372	exproc	block3list	F2	maa	2	45
Assim_main_chinese_500ms	111	1	<?xml version="1.0"?>\n<Clock xmlns:dt="urn:schemas-microsoft-com:datatypes"><Description dt:dt="string">E-Prime Primary Realtime Clock</Description><StartTime><Timestamp dt:dt="int">0</Timestamp><DateUtc dt:dt="string">2018-02-22T01:32:40Z</DateUtc></StartTime><FrequencyChanges><FrequencyChange><Frequency dt:dt="r8">2742373</Frequency><Timestamp dt:dt="r8">23588584154</Timestamp><Current dt:dt="r8">0</Current><DateUtc dt:dt="string">2018-02-22T01:32:40Z</DateUtc></FrequencyChange></FrequencyChanges></Clock>\n	Assim_main_chinese_500ms-111-1	60.016	1.0.0.76	1	2113923652	Professional	2.0.10.353	2.0.10.353	02-22-2018	22-Feb-18 1:32:40 AM	12:32:40	2.0.10.248	13	3	1	3																																block3	explist														19													12	1	19													1		0	100	442292	1499		0	0	1	4	0	21	444508	0	4	1579	446087	1		0	18	446107	0		0	0	Thai_F2_maa241-5	0		0	-1	443791	0	f	696	444487	exproc	block3list	F2	maa	5	241
Assim_main_chinese_500ms	111	1	<?xml version="1.0"?>\n<Clock xmlns:dt="urn:schemas-microsoft-com:datatypes"><Description dt:dt="string">E-Prime Primary Realtime Clock</Description><StartTime><Timestamp dt:dt="int">0</Timestamp><DateUtc dt:dt="string">2018-02-22T01:32:40Z</DateUtc></StartTime><FrequencyChanges><FrequencyChange><Frequency dt:dt="r8">2742373</Frequency><Timestamp dt:dt="r8">23588584154</Timestamp><Current dt:dt="r8">0</Current><DateUtc dt:dt="string">2018-02-22T01:32:40Z</DateUtc></FrequencyChange></FrequencyChanges></Clock>\n	Assim_main_chinese_500ms-111-1	60.016	1.0.0.76	1	2113923652	Professional	2.0.10.353	2.0.10.353	02-22-2018	22-Feb-18 1:32:40 AM	12:32:40	2.0.10.248	13	3	1	3																																block3	explist														20													1	1	20													1		0	83	447190	1500		0	0	1	4	0	20	449440	0	4	1931	451371	1		0	18	451389	0		0	0	Thai_F2_maa21-1	0		0	0	448690	0	g	730	449420	exproc	block3list	F2	maa	1	21
Assim_main_chinese_500ms	111	1	<?xml version="1.0"?>\n<Clock xmlns:dt="urn:schemas-microsoft-com:datatypes"><Description dt:dt="string">E-Prime Primary Realtime Clock</Description><StartTime><Timestamp dt:dt="int">0</Timestamp><DateUtc dt:dt="string">2018-02-22T01:32:40Z</DateUtc></StartTime><FrequencyChanges><FrequencyChange><Frequency dt:dt="r8">2742373</Frequency><Timestamp dt:dt="r8">23588584154</Timestamp><Current dt:dt="r8">0</Current><DateUtc dt:dt="string">2018-02-22T01:32:40Z</DateUtc></FrequencyChange></FrequencyChanges></Clock>\n	Assim_main_chinese_500ms-111-1	60.016	1.0.0.76	1	2113923652	Professional	2.0.10.353	2.0.10.353	02-22-2018	22-Feb-18 1:32:40 AM	12:32:40	2.0.10.248	14	2	1	4																																block2	explist														1							6	1	1																			1		0	94	459554	1499		0	0	0	4	1	6	461103	0	5	1767	462870	1		0	14	462886	0		0	0	Thai_F2_maa21-4	0		0	-1	461053	0	g	44	461097	exproc	block2alist	F4	maa	4	21
Assim_main_chinese_500ms	111	1	<?xml version="1.0"?>\n<Clock xmlns:dt="urn:schemas-microsoft-com:datatypes"><Description dt:dt="string">E-Prime Primary Realtime Clock</Description><StartTime><Timestamp dt:dt="int">0</Timestamp><DateUtc dt:dt="string">2018-02-22T01:32:40Z</DateUtc></StartTime><FrequencyChanges><FrequencyChange><Frequency dt:dt="r8">2742373</Frequency><Timestamp dt:dt="r8">23588584154</Timestamp><Current dt:dt="r8">0</Current><DateUtc dt:dt="string">2018-02-22T01:32:40Z</DateUtc></FrequencyChange></FrequencyChanges></Clock>\n	Assim_main_chinese_500ms-111-1	60.016	1.0.0.76	1	2113923652	Professional	2.0.10.353	2.0.10.353	02-22-2018	22-Feb-18 1:32:40 AM	12:32:40	2.0.10.248	14	2	1	4																																block2	explist														2							7	1	2																			1		0	83	463969	1500		0	0	0	4	0	13	465602	0	3	2895	468497	1		0	17	468518	0		0	0	Thai_F2_maa241-5	0		0	0	465469	0	f	120	465589	exproc	block2alist	F4	maa	5	241
Assim_main_chinese_500ms	111	1	<?xml version="1.0"?>\n<Clock xmlns:dt="urn:schemas-microsoft-com:datatypes"><Description dt:dt="string">E-Prime Primary Realtime Clock</Description><StartTime><Timestamp dt:dt="int">0</Timestamp><DateUtc dt:dt="string">2018-02-22T01:32:40Z</DateUtc></StartTime><FrequencyChanges><FrequencyChange><Frequency dt:dt="r8">2742373</Frequency><Timestamp dt:dt="r8">23588584154</Timestamp><Current dt:dt="r8">0</Current><DateUtc dt:dt="string">2018-02-22T01:32:40Z</DateUtc></FrequencyChange></FrequencyChanges></Clock>\n	Assim_main_chinese_500ms-111-1	60.016	1.0.0.76	1	2113923652	Professional	2.0.10.353	2.0.10.353	02-22-2018	22-Feb-18 1:32:40 AM	12:32:40	2.0.10.248	14	2	1	4																																block2	explist														3							9	1	3																			1		0	100	469618	1499		0	0	0	4	0	17	471267	0	6	1623	472890	1		0	23	472917	0		0	0	Thai_F2_maa33-5	0		0	-1	471117	0	f	133	471250	exproc	block2alist	F4	maa	5	33
Assim_main_chinese_500ms	111	1	<?xml version="1.0"?>\n<Clock xmlns:dt="urn:schemas-microsoft-com:datatypes"><Description dt:dt="string">E-Prime Primary Realtime Clock</Description><StartTime><Timestamp dt:dt="int">0</Timestamp><DateUtc dt:dt="string">2018-02-22T01:32:40Z</DateUtc></StartTime><FrequencyChanges><FrequencyChange><Frequency dt:dt="r8">2742373</Frequency><Timestamp dt:dt="r8">23588584154</Timestamp><Current dt:dt="r8">0</Current><DateUtc dt:dt="string">2018-02-22T01:32:40Z</DateUtc></FrequencyChange></FrequencyChanges></Clock>\n	Assim_main_chinese_500ms-111-1	60.016	1.0.0.76	1	2113923652	Professional	2.0.10.353	2.0.10.353	02-22-2018	22-Feb-18 1:32:40 AM	12:32:40	2.0.10.248	14	2	1	4																																block2	explist														4							5	1	4																			1		0	83	474000	1500		0	0	0	4	0	12	475850	0	7	1288	477138	1		0	10	477149	0		0	0	Thai_F4_maa45-3	0		0	0	475500	0	h	338	475838	exproc	block2alist	F4	maa	3	45
Assim_main_chinese_500ms	111	1	<?xml version="1.0"?>\n<Clock xmlns:dt="urn:schemas-microsoft-com:datatypes"><Description dt:dt="string">E-Prime Primary Realtime Clock</Description><StartTime><Timestamp dt:dt="int">0</Timestamp><DateUtc dt:dt="string">2018-02-22T01:32:40Z</DateUtc></StartTime><FrequencyChanges><FrequencyChange><Frequency dt:dt="r8">2742373</Frequency><Timestamp dt:dt="r8">23588584154</Timestamp><Current dt:dt="r8">0</Current><DateUtc dt:dt="string">2018-02-22T01:32:40Z</DateUtc></FrequencyChange></FrequencyChanges></Clock>\n	Assim_main_chinese_500ms-111-1	60.016	1.0.0.76	1	2113923652	Professional	2.0.10.353	2.0.10.353	02-22-2018	22-Feb-18 1:32:40 AM	12:32:40	2.0.10.248	14	2	1	4																																block2	explist														5							8	1	5																			1		0	100	478249	1500		0	0	0	4	0	5	480365	0	7	1299	481664	1		0	15	481681	0		0	0	Thai_F2_maa315-3	0		0	0	479749	0	h	611	480360	exproc	block2alist	F4	maa	3	315
Assim_main_chinese_500ms	111	1	<?xml version="1.0"?>\n<Clock xmlns:dt="urn:schemas-microsoft-com:datatypes"><Description dt:dt="string">E-Prime Primary Realtime Clock</Description><StartTime><Timestamp dt:dt="int">0</Timestamp><DateUtc dt:dt="string">2018-02-22T01:32:40Z</DateUtc></StartTime><FrequencyChanges><FrequencyChange><Frequency dt:dt="r8">2742373</Frequency><Timestamp dt:dt="r8">23588584154</Timestamp><Current dt:dt="r8">0</Current><DateUtc dt:dt="string">2018-02-22T01:32:40Z</DateUtc></FrequencyChange></FrequencyChanges></Clock>\n	Assim_main_chinese_500ms-111-1	60.016	1.0.0.76	1	2113923652	Professional	2.0.10.353	2.0.10.353	02-22-2018	22-Feb-18 1:32:40 AM	12:32:40	2.0.10.248	14	2	1	4																																block2	explist														6							3	1	6																			1		0	100	482781	1500		0	0	0	4	0	17	484714	0	7	1056	485770	1		0	9	485780	0		0	0	Thai_F4_maa315-5	0		0	0	484281	0	h	416	484697	exproc	block2alist	F4	maa	5	315
Assim_main_chinese_500ms	111	1	<?xml version="1.0"?>\n<Clock xmlns:dt="urn:schemas-microsoft-com:datatypes"><Description dt:dt="string">E-Prime Primary Realtime Clock</Description><StartTime><Timestamp dt:dt="int">0</Timestamp><DateUtc dt:dt="string">2018-02-22T01:32:40Z</DateUtc></StartTime><FrequencyChanges><FrequencyChange><Frequency dt:dt="r8">2742373</Frequency><Timestamp dt:dt="r8">23588584154</Timestamp><Current dt:dt="r8">0</Current><DateUtc dt:dt="string">2018-02-22T01:32:40Z</DateUtc></FrequencyChange></FrequencyChanges></Clock>\n	Assim_main_chinese_500ms-111-1	60.016	1.0.0.76	1	2113923652	Professional	2.0.10.353	2.0.10.353	02-22-2018	22-Feb-18 1:32:40 AM	12:32:40	2.0.10.248	14	2	1	4																																block2	explist														7							10	1	7																			1		0	83	486863	1500		0	0	0	4	0	5	488896	0	6	1119	490015	1		0	10	490029	0		0	0	Thai_F2_maa45-2	0		0	0	488363	0	g	528	488891	exproc	block2alist	F4	maa	2	45
Assim_main_chinese_500ms	111	1	<?xml version="1.0"?>\n<Clock xmlns:dt="urn:schemas-microsoft-com:datatypes"><Description dt:dt="string">E-Prime Primary Realtime Clock</Description><StartTime><Timestamp dt:dt="int">0</Timestamp><DateUtc dt:dt="string">2018-02-22T01:32:40Z</DateUtc></StartTime><FrequencyChanges><FrequencyChange><Frequency dt:dt="r8">2742373</Frequency><Timestamp dt:dt="r8">23588584154</Timestamp><Current dt:dt="r8">0</Current><DateUtc dt:dt="string">2018-02-22T01:32:40Z</DateUtc></FrequencyChange></FrequencyChanges></Clock>\n	Assim_main_chinese_500ms-111-1	60.016	1.0.0.76	1	2113923652	Professional	2.0.10.353	2.0.10.353	02-22-2018	22-Feb-18 1:32:40 AM	12:32:40	2.0.10.248	14	2	1	4																																block2	explist														8							4	1	8																			1		0	117	491146	1499		0	0	0	4	0	18	492862	0	7	1327	494189	1		0	20	494211	0		0	0	Thai_F4_maa33-1	0		0	-1	492645	0	f	199	492844	exproc	block2alist	F4	maa	1	33
Assim_main_chinese_500ms	111	1	<?xml version="1.0"?>\n<Clock xmlns:dt="urn:schemas-microsoft-com:datatypes"><Description dt:dt="string">E-Prime Primary Realtime Clock</Description><StartTime><Timestamp dt:dt="int">0</Timestamp><DateUtc dt:dt="string">2018-02-22T01:32:40Z</DateUtc></StartTime><FrequencyChanges><FrequencyChange><Frequency dt:dt="r8">2742373</Frequency><Timestamp dt:dt="r8">23588584154</Timestamp><Current dt:dt="r8">0</Current><DateUtc dt:dt="string">2018-02-22T01:32:40Z</DateUtc></FrequencyChange></FrequencyChanges></Clock>\n	Assim_main_chinese_500ms-111-1	60.016	1.0.0.76	1	2113923652	Professional	2.0.10.353	2.0.10.353	02-22-2018	22-Feb-18 1:32:40 AM	12:32:40	2.0.10.248	14	2	1	4																																block2	explist														9							1	1	9																			1		0	100	495311	1500		0	0	0	4	0	20	497461	0	7	1287	498748	1		0	10	498760	0		0	0	Thai_F4_maa21-1	0		0	0	496811	0	j	630	497441	exproc	block2alist	F4	maa	1	21
Assim_main_chinese_500ms	111	1	<?xml version="1.0"?>\n<Clock xmlns:dt="urn:schemas-microsoft-com:datatypes"><Description dt:dt="string">E-Prime Primary Realtime Clock</Description><StartTime><Timestamp dt:dt="int">0</Timestamp><DateUtc dt:dt="string">2018-02-22T01:32:40Z</DateUtc></StartTime><FrequencyChanges><FrequencyChange><Frequency dt:dt="r8">2742373</Frequency><Timestamp dt:dt="r8">23588584154</Timestamp><Current dt:dt="r8">0</Current><DateUtc dt:dt="string">2018-02-22T01:32:40Z</DateUtc></FrequencyChange></FrequencyChanges></Clock>\n	Assim_main_chinese_500ms-111-1	60.016	1.0.0.76	1	2113923652	Professional	2.0.10.353	2.0.10.353	02-22-2018	22-Feb-18 1:32:40 AM	12:32:40	2.0.10.248	14	2	1	4																																block2	explist														10							2	1	10																			1		0	83	499843	1500		0	0	0	4	1	6	501559	0	7	1193	502752	1		0	21	502776	0		0	0	Thai_F4_maa241-5	0		0	0	501343	0	j	210	501553	exproc	block2alist	F4	maa	5	241
Assim_main_chinese_500ms	111	1	<?xml version="1.0"?>\n<Clock xmlns:dt="urn:schemas-microsoft-com:datatypes"><Description dt:dt="string">E-Prime Primary Realtime Clock</Description><StartTime><Timestamp dt:dt="int">0</Timestamp><DateUtc dt:dt="string">2018-02-22T01:32:40Z</DateUtc></StartTime><FrequencyChanges><FrequencyChange><Frequency dt:dt="r8">2742373</Frequency><Timestamp dt:dt="r8">23588584154</Timestamp><Current dt:dt="r8">0</Current><DateUtc dt:dt="string">2018-02-22T01:32:40Z</DateUtc></FrequencyChange></FrequencyChanges></Clock>\n	Assim_main_chinese_500ms-111-1	60.016	1.0.0.76	1	2113923652	Professional	2.0.10.353	2.0.10.353	02-22-2018	22-Feb-18 1:32:40 AM	12:32:40	2.0.10.248	14	2	1	4																																block2	explist														11										6	1	1																0		0	100	503876	1499	j	1391	505267	0	4	0	9	505958	0	7	1394	507352	1		0	22	507375	0		0	0	Thai_F4_mii21-6	0		0	-1	505375	0	j	574	505949	exproc	block2blist	F4	mii	6	21
Assim_main_chinese_500ms	111	1	<?xml version="1.0"?>\n<Clock xmlns:dt="urn:schemas-microsoft-com:datatypes"><Description dt:dt="string">E-Prime Primary Realtime Clock</Description><StartTime><Timestamp dt:dt="int">0</Timestamp><DateUtc dt:dt="string">2018-02-22T01:32:40Z</DateUtc></StartTime><FrequencyChanges><FrequencyChange><Frequency dt:dt="r8">2742373</Frequency><Timestamp dt:dt="r8">23588584154</Timestamp><Current dt:dt="r8">0</Current><DateUtc dt:dt="string">2018-02-22T01:32:40Z</DateUtc></FrequencyChange></FrequencyChanges></Clock>\n	Assim_main_chinese_500ms-111-1	60.016	1.0.0.76	1	2113923652	Professional	2.0.10.353	2.0.10.353	02-22-2018	22-Feb-18 1:32:40 AM	12:32:40	2.0.10.248	14	2	1	4																																block2	explist														12										10	1	2																1		0	116	508491	1500		0	0	0	4	0	15	510291	0	6	1314	511605	1		0	16	511624	0		0	0	Thai_F4_mii45-3	0		0	0	509991	0	h	285	510276	exproc	block2blist	F4	mii	3	45
Assim_main_chinese_500ms	111	1	<?xml version="1.0"?>\n<Clock xmlns:dt="urn:schemas-microsoft-com:datatypes"><Description dt:dt="string">E-Prime Primary Realtime Clock</Description><StartTime><Timestamp dt:dt="int">0</Timestamp><DateUtc dt:dt="string">2018-02-22T01:32:40Z</DateUtc></StartTime><FrequencyChanges><FrequencyChange><Frequency dt:dt="r8">2742373</Frequency><Timestamp dt:dt="r8">23588584154</Timestamp><Current dt:dt="r8">0</Current><DateUtc dt:dt="string">2018-02-22T01:32:40Z</DateUtc></FrequencyChange></FrequencyChanges></Clock>\n	Assim_main_chinese_500ms-111-1	60.016	1.0.0.76	1	2113923652	Professional	2.0.10.353	2.0.10.353	02-22-2018	22-Feb-18 1:32:40 AM	12:32:40	2.0.10.248	14	2	1	4																																block2	explist														13										5	1	3																1		0	116	512740	1500		0	0	0	4	1	9	514439	0	7	1359	515798	1		0	20	515822	0		0	0	Thai_F4_mii45-2	0		0	0	514240	0	g	189	514429	exproc	block2blist	F4	mii	2	45
Assim_main_chinese_500ms	111	1	<?xml version="1.0"?>\n<Clock xmlns:dt="urn:schemas-microsoft-com:datatypes"><Description dt:dt="string">E-Prime Primary Realtime Clock</Description><StartTime><Timestamp dt:dt="int">0</Timestamp><DateUtc dt:dt="string">2018-02-22T01:32:40Z</DateUtc></StartTime><FrequencyChanges><FrequencyChange><Frequency dt:dt="r8">2742373</Frequency><Timestamp dt:dt="r8">23588584154</Timestamp><Current dt:dt="r8">0</Current><DateUtc dt:dt="string">2018-02-22T01:32:40Z</DateUtc></FrequencyChange></FrequencyChanges></Clock>\n	Assim_main_chinese_500ms-111-1	60.016	1.0.0.76	1	2113923652	Professional	2.0.10.353	2.0.10.353	02-22-2018	22-Feb-18 1:32:40 AM	12:32:40	2.0.10.248	14	2	1	4																																block2	explist														14										4	1	4																1		1	83	516905	1500		0	0	0	4	0	20	518905	0	7	1246	520151	1		0	18	520171	0		0	0	Thai_F4_mii33-5	0		0	0	518405	0	f	480	518885	exproc	block2blist	F4	mii	5	33
Assim_main_chinese_500ms	111	1	<?xml version="1.0"?>\n<Clock xmlns:dt="urn:schemas-microsoft-com:datatypes"><Description dt:dt="string">E-Prime Primary Realtime Clock</Description><StartTime><Timestamp dt:dt="int">0</Timestamp><DateUtc dt:dt="string">2018-02-22T01:32:40Z</DateUtc></StartTime><FrequencyChanges><FrequencyChange><Frequency dt:dt="r8">2742373</Frequency><Timestamp dt:dt="r8">23588584154</Timestamp><Current dt:dt="r8">0</Current><DateUtc dt:dt="string">2018-02-22T01:32:40Z</DateUtc></FrequencyChange></FrequencyChanges></Clock>\n	Assim_main_chinese_500ms-111-1	60.016	1.0.0.76	1	2113923652	Professional	2.0.10.353	2.0.10.353	02-22-2018	22-Feb-18 1:32:40 AM	12:32:40	2.0.10.248	14	2	1	4																																block2	explist														15										3	1	5																0		0	100	521271	1500	h	1372	522643	0	4	0	6	523404	0	6	1628	525032	1		0	19	525053	0		0	0	Thai_F4_mii315-4	0		0	0	522771	0	h	627	523398	exproc	block2blist	F4	mii	4	315
Assim_main_chinese_500ms	111	1	<?xml version="1.0"?>\n<Clock xmlns:dt="urn:schemas-microsoft-com:datatypes"><Description dt:dt="string">E-Prime Primary Realtime Clock</Description><StartTime><Timestamp dt:dt="int">0</Timestamp><DateUtc dt:dt="string">2018-02-22T01:32:40Z</DateUtc></StartTime><FrequencyChanges><FrequencyChange><Frequency dt:dt="r8">2742373</Frequency><Timestamp dt:dt="r8">23588584154</Timestamp><Current dt:dt="r8">0</Current><DateUtc dt:dt="string">2018-02-22T01:32:40Z</DateUtc></FrequencyChange></FrequencyChanges></Clock>\n	Assim_main_chinese_500ms-111-1	60.016	1.0.0.76	1	2113923652	Professional	2.0.10.353	2.0.10.353	02-22-2018	22-Feb-18 1:32:40 AM	12:32:40	2.0.10.248	14	2	1	4																																block2	explist														16										7	1	6																1		0	100	526153	1500		0	0	0	4	0	9	527936	0	7	1749	529685	1		0	14	529702	0		0	0	Thai_F4_mii241-5	0		0	0	527653	0	j	274	527927	exproc	block2blist	F4	mii	5	241
Assim_main_chinese_500ms	111	1	<?xml version="1.0"?>\n<Clock xmlns:dt="urn:schemas-microsoft-com:datatypes"><Description dt:dt="string">E-Prime Primary Realtime Clock</Description><StartTime><Timestamp dt:dt="int">0</Timestamp><DateUtc dt:dt="string">2018-02-22T01:32:40Z</DateUtc></StartTime><FrequencyChanges><FrequencyChange><Frequency dt:dt="r8">2742373</Frequency><Timestamp dt:dt="r8">23588584154</Timestamp><Current dt:dt="r8">0</Current><DateUtc dt:dt="string">2018-02-22T01:32:40Z</DateUtc></FrequencyChange></FrequencyChanges></Clock>\n	Assim_main_chinese_500ms-111-1	60.016	1.0.0.76	1	2113923652	Professional	2.0.10.353	2.0.10.353	02-22-2018	22-Feb-18 1:32:40 AM	12:32:40	2.0.10.248	14	2	1	4																																block2	explist														17										9	1	7																1		0	100	530802	1499		0	0	0	4	0	11	533518	0	5	1911	535429	1		0	22	535451	0		0	0	Thai_F4_mii33-6	0		1	-1	532301	0	j	1206	533507	exproc	block2blist	F4	mii	6	33
Assim_main_chinese_500ms	111	1	<?xml version="1.0"?>\n<Clock xmlns:dt="urn:schemas-microsoft-com:datatypes"><Description dt:dt="string">E-Prime Primary Realtime Clock</Description><StartTime><Timestamp dt:dt="int">0</Timestamp><DateUtc dt:dt="string">2018-02-22T01:32:40Z</DateUtc></StartTime><FrequencyChanges><FrequencyChange><Frequency dt:dt="r8">2742373</Frequency><Timestamp dt:dt="r8">23588584154</Timestamp><Current dt:dt="r8">0</Current><DateUtc dt:dt="string">2018-02-22T01:32:40Z</DateUtc></FrequencyChange></FrequencyChanges></Clock>\n	Assim_main_chinese_500ms-111-1	60.016	1.0.0.76	1	2113923652	Professional	2.0.10.353	2.0.10.353	02-22-2018	22-Feb-18 1:32:40 AM	12:32:40	2.0.10.248	14	2	1	4																																block2	explist														18										2	1	8																1		0	99	536550	1500		0	0	0	4	0	20	538350	0	7	1747	540097	1		0	19	540116	0		0	0	Thai_F4_mii241-2	0		0	0	538050	0	j	280	538330	exproc	block2blist	F4	mii	2	241
Assim_main_chinese_500ms	111	1	<?xml version="1.0"?>\n<Clock xmlns:dt="urn:schemas-microsoft-com:datatypes"><Description dt:dt="string">E-Prime Primary Realtime Clock</Description><StartTime><Timestamp dt:dt="int">0</Timestamp><DateUtc dt:dt="string">2018-02-22T01:32:40Z</DateUtc></StartTime><FrequencyChanges><FrequencyChange><Frequency dt:dt="r8">2742373</Frequency><Timestamp dt:dt="r8">23588584154</Timestamp><Current dt:dt="r8">0</Current><DateUtc dt:dt="string">2018-02-22T01:32:40Z</DateUtc></FrequencyChange></FrequencyChanges></Clock>\n	Assim_main_chinese_500ms-111-1	60.016	1.0.0.76	1	2113923652	Professional	2.0.10.353	2.0.10.353	02-22-2018	22-Feb-18 1:32:40 AM	12:32:40	2.0.10.248	14	2	1	4																																block2	explist														19										1	1	9																1		0	83	541199	1500		0	0	0	4	0	19	543265	0	6	1754	545019	1		0	10	545031	0		0	0	Thai_F4_mii21-2	0		0	0	542699	0	j	547	543246	exproc	block2blist	F4	mii	2	21
Assim_main_chinese_500ms	111	1	<?xml version="1.0"?>\n<Clock xmlns:dt="urn:schemas-microsoft-com:datatypes"><Description dt:dt="string">E-Prime Primary Realtime Clock</Description><StartTime><Timestamp dt:dt="int">0</Timestamp><DateUtc dt:dt="string">2018-02-22T01:32:40Z</DateUtc></StartTime><FrequencyChanges><FrequencyChange><Frequency dt:dt="r8">2742373</Frequency><Timestamp dt:dt="r8">23588584154</Timestamp><Current dt:dt="r8">0</Current><DateUtc dt:dt="string">2018-02-22T01:32:40Z</DateUtc></FrequencyChange></FrequencyChanges></Clock>\n	Assim_main_chinese_500ms-111-1	60.016	1.0.0.76	1	2113923652	Professional	2.0.10.353	2.0.10.353	02-22-2018	22-Feb-18 1:32:40 AM	12:32:40	2.0.10.248	14	2	1	4																																block2	explist														20										8	1	10																1		0	100	546131	1500		0	0	0	4	0	10	548281	0	7	1643	549924	1		0	20	549947	0		0	0	Thai_F4_mii315-6	0		0	0	547631	0	h	640	548271	exproc	block2blist	F4	mii	6	315
Assim_main_chinese_500ms	111	1	<?xml version="1.0"?>\n<Clock xmlns:dt="urn:schemas-microsoft-com:datatypes"><Description dt:dt="string">E-Prime Primary Realtime Clock</Description><StartTime><Timestamp dt:dt="int">0</Timestamp><DateUtc dt:dt="string">2018-02-22T01:32:40Z</DateUtc></StartTime><FrequencyChanges><FrequencyChange><Frequency dt:dt="r8">2742373</Frequency><Timestamp dt:dt="r8">23588584154</Timestamp><Current dt:dt="r8">0</Current><DateUtc dt:dt="string">2018-02-22T01:32:40Z</DateUtc></FrequencyChange></FrequencyChanges></Clock>\n	Assim_main_chinese_500ms-111-1	60.016	1.0.0.76	1	2113923652	Professional	2.0.10.353	2.0.10.353	02-22-2018	22-Feb-18 1:32:40 AM	12:32:40	2.0.10.248	15	5	1	5																																block5	explist														1																			15	1	1							1		1	86	574490	1500		0	0	1	4	0	16	576823	0	4	1453	578276	1		0	10	578289	0		0	0	Thai_F2_maa45-2	0		0	0	575990	0	h	817	576807	exproc	block5list	F2	maa	2	45
Assim_main_chinese_500ms	111	1	<?xml version="1.0"?>\n<Clock xmlns:dt="urn:schemas-microsoft-com:datatypes"><Description dt:dt="string">E-Prime Primary Realtime Clock</Description><StartTime><Timestamp dt:dt="int">0</Timestamp><DateUtc dt:dt="string">2018-02-22T01:32:40Z</DateUtc></StartTime><FrequencyChanges><FrequencyChange><Frequency dt:dt="r8">2742373</Frequency><Timestamp dt:dt="r8">23588584154</Timestamp><Current dt:dt="r8">0</Current><DateUtc dt:dt="string">2018-02-22T01:32:40Z</DateUtc></FrequencyChange></FrequencyChanges></Clock>\n	Assim_main_chinese_500ms-111-1	60.016	1.0.0.76	1	2113923652	Professional	2.0.10.353	2.0.10.353	02-22-2018	22-Feb-18 1:32:40 AM	12:32:40	2.0.10.248	15	5	1	5																																block5	explist														2																			12	1	2							0		0	100	579389	1500	j	1374	580763	0	4	0	-1	583888	0	6	1491	585379	1		0	25	585404	0		0	0	Thai_F2_maa241-5	1		0	0	580889	2999		0	0	exproc	block5list	F2	maa	5	241
Assim_main_chinese_500ms	111	1	<?xml version="1.0"?>\n<Clock xmlns:dt="urn:schemas-microsoft-com:datatypes"><Description dt:dt="string">E-Prime Primary Realtime Clock</Description><StartTime><Timestamp dt:dt="int">0</Timestamp><DateUtc dt:dt="string">2018-02-22T01:32:40Z</DateUtc></StartTime><FrequencyChanges><FrequencyChange><Frequency dt:dt="r8">2742373</Frequency><Timestamp dt:dt="r8">23588584154</Timestamp><Current dt:dt="r8">0</Current><DateUtc dt:dt="string">2018-02-22T01:32:40Z</DateUtc></FrequencyChange></FrequencyChanges></Clock>\n	Assim_main_chinese_500ms-111-1	60.016	1.0.0.76	1	2113923652	Professional	2.0.10.353	2.0.10.353	02-22-2018	22-Feb-18 1:32:40 AM	12:32:40	2.0.10.248	15	5	1	5																																block5	explist														3																			3	1	3							1		0	100	586504	1500		0	0	0	4	0	8	588320	0	7	1663	589983	1		0	19	590003	0		0	0	Thai_F2_maa315-2	0		0	0	588004	0	h	308	588312	exproc	block5list	F2	maa	2	315
Assim_main_chinese_500ms	111	1	<?xml version="1.0"?>\n<Clock xmlns:dt="urn:schemas-microsoft-com:datatypes"><Description dt:dt="string">E-Prime Primary Realtime Clock</Description><StartTime><Timestamp dt:dt="int">0</Timestamp><DateUtc dt:dt="string">2018-02-22T01:32:40Z</DateUtc></StartTime><FrequencyChanges><FrequencyChange><Frequency dt:dt="r8">2742373</Frequency><Timestamp dt:dt="r8">23588584154</Timestamp><Current dt:dt="r8">0</Current><DateUtc dt:dt="string">2018-02-22T01:32:40Z</DateUtc></FrequencyChange></FrequencyChanges></Clock>\n	Assim_main_chinese_500ms-111-1	60.016	1.0.0.76	1	2113923652	Professional	2.0.10.353	2.0.10.353	02-22-2018	22-Feb-18 1:32:40 AM	12:32:40	2.0.10.248	15	5	1	5																																block5	explist														4																			8	1	4							1		0	100	591103	1499		0	0	0	4	0	14	592852	0	7	1594	594446	1		0	22	594469	0		0	0	Thai_F4_maa315-5	0		0	-1	592602	0	h	236	592838	exproc	block5list	F4	maa	5	315
Assim_main_chinese_500ms	111	1	<?xml version="1.0"?>\n<Clock xmlns:dt="urn:schemas-microsoft-com:datatypes"><Description dt:dt="string">E-Prime Primary Realtime Clock</Description><StartTime><Timestamp dt:dt="int">0</Timestamp><DateUtc dt:dt="string">2018-02-22T01:32:40Z</DateUtc></StartTime><FrequencyChanges><FrequencyChange><Frequency dt:dt="r8">2742373</Frequency><Timestamp dt:dt="r8">23588584154</Timestamp><Current dt:dt="r8">0</Current><DateUtc dt:dt="string">2018-02-22T01:32:40Z</DateUtc></FrequencyChange></FrequencyChanges></Clock>\n	Assim_main_chinese_500ms-111-1	60.016	1.0.0.76	1	2113923652	Professional	2.0.10.353	2.0.10.353	02-22-2018	22-Feb-18 1:32:40 AM	12:32:40	2.0.10.248	15	5	1	5																																block5	explist														5																			4	1	5							1		0	99	595568	1500		0	0	0	4	0	14	598001	0	6	1203	599204	1		0	12	599217	0		0	0	Thai_F2_maa33-2	0		0	0	597068	0	j	919	597987	exproc	block5list	F2	maa	2	33
Assim_main_chinese_500ms	111	1	<?xml version="1.0"?>\n<Clock xmlns:dt="urn:schemas-microsoft-com:datatypes"><Description dt:dt="string">E-Prime Primary Realtime Clock</Description><StartTime><Timestamp dt:dt="int">0</Timestamp><DateUtc dt:dt="string">2018-02-22T01:32:40Z</DateUtc></StartTime><FrequencyChanges><FrequencyChange><Frequency dt:dt="r8">2742373</Frequency><Timestamp dt:dt="r8">23588584154</Timestamp><Current dt:dt="r8">0</Current><DateUtc dt:dt="string">2018-02-22T01:32:40Z</DateUtc></FrequencyChange></FrequencyChanges></Clock>\n	Assim_main_chinese_500ms-111-1	60.016	1.0.0.76	1	2113923652	Professional	2.0.10.353	2.0.10.353	02-22-2018	22-Feb-18 1:32:40 AM	12:32:40	2.0.10.248	15	5	1	5																																block5	explist														6																			2	1	6							1		0	83	600300	1500		0	0	0	4	0	21	601983	0	6	1202	603185	1		0	14	603200	0		0	0	Thai_F2_maa241-3	0		0	0	601800	0	j	162	601962	exproc	block5list	F2	maa	3	241
Assim_main_chinese_500ms	111	1	<?xml version="1.0"?>\n<Clock xmlns:dt="urn:schemas-microsoft-com:datatypes"><Description dt:dt="string">E-Prime Primary Realtime Clock</Description><StartTime><Timestamp dt:dt="int">0</Timestamp><DateUtc dt:dt="string">2018-02-22T01:32:40Z</DateUtc></StartTime><FrequencyChanges><FrequencyChange><Frequency dt:dt="r8">2742373</Frequency><Timestamp dt:dt="r8">23588584154</Timestamp><Current dt:dt="r8">0</Current><DateUtc dt:dt="string">2018-02-22T01:32:40Z</DateUtc></FrequencyChange></FrequencyChanges></Clock>\n	Assim_main_chinese_500ms-111-1	60.016	1.0.0.76	1	2113923652	Professional	2.0.10.353	2.0.10.353	02-22-2018	22-Feb-18 1:32:40 AM	12:32:40	2.0.10.248	15	5	1	5																																block5	explist														7																			1	1	7							1		0	99	604299	1500		0	0	0	4	0	20	606382	0	7	863	607245	1		0	17	607265	0		0	0	Thai_F2_maa21-1	0		0	0	605799	0	j	563	606362	exproc	block5list	F2	maa	1	21
Assim_main_chinese_500ms	111	1	<?xml version="1.0"?>\n<Clock xmlns:dt="urn:schemas-microsoft-com:datatypes"><Description dt:dt="string">E-Prime Primary Realtime Clock</Description><StartTime><Timestamp dt:dt="int">0</Timestamp><DateUtc dt:dt="string">2018-02-22T01:32:40Z</DateUtc></StartTime><FrequencyChanges><FrequencyChange><Frequency dt:dt="r8">2742373</Frequency><Timestamp dt:dt="r8">23588584154</Timestamp><Current dt:dt="r8">0</Current><DateUtc dt:dt="string">2018-02-22T01:32:40Z</DateUtc></FrequencyChange></FrequencyChanges></Clock>\n	Assim_main_chinese_500ms-111-1	60.016	1.0.0.76	1	2113923652	Professional	2.0.10.353	2.0.10.353	02-22-2018	22-Feb-18 1:32:40 AM	12:32:40	2.0.10.248	15	5	1	5																																block5	explist														8																			13	1	8							1		0	83	608348	1500		0	0	1	4	1	7	610414	0	4	1190	611604	1		0	8	611614	0		0	0	Thai_F2_maa315-3	0		0	0	609848	0	g	559	610407	exproc	block5list	F2	maa	3	315
Assim_main_chinese_500ms	111	1	<?xml version="1.0"?>\n<Clock xmlns:dt="urn:schemas-microsoft-com:datatypes"><Description dt:dt="string">E-Prime Primary Realtime Clock</Description><StartTime><Timestamp dt:dt="int">0</Timestamp><DateUtc dt:dt="string">2018-02-22T01:32:40Z</DateUtc></StartTime><FrequencyChanges><FrequencyChange><Frequency dt:dt="r8">2742373</Frequency><Timestamp dt:dt="r8">23588584154</Timestamp><Current dt:dt="r8">0</Current><DateUtc dt:dt="string">2018-02-22T01:32:40Z</DateUtc></FrequencyChange></FrequencyChanges></Clock>\n	Assim_main_chinese_500ms-111-1	60.016	1.0.0.76	1	2113923652	Professional	2.0.10.353	2.0.10.353	02-22-2018	22-Feb-18 1:32:40 AM	12:32:40	2.0.10.248	15	5	1	5																																block5	explist														9																			7	1	9							1		0	100	612714	1499		0	0	0	4	0	10	614613	0	7	1576	616189	1		0	23	616213	0		0	0	Thai_F4_maa241-5	0		0	-1	614213	0	j	390	614603	exproc	block5list	F4	maa	5	241
Assim_main_chinese_500ms	111	1	<?xml version="1.0"?>\n<Clock xmlns:dt="urn:schemas-microsoft-com:datatypes"><Description dt:dt="string">E-Prime Primary Realtime Clock</Description><StartTime><Timestamp dt:dt="int">0</Timestamp><DateUtc dt:dt="string">2018-02-22T01:32:40Z</DateUtc></StartTime><FrequencyChanges><FrequencyChange><Frequency dt:dt="r8">2742373</Frequency><Timestamp dt:dt="r8">23588584154</Timestamp><Current dt:dt="r8">0</Current><DateUtc dt:dt="string">2018-02-22T01:32:40Z</DateUtc></FrequencyChange></FrequencyChanges></Clock>\n	Assim_main_chinese_500ms-111-1	60.016	1.0.0.76	1	2113923652	Professional	2.0.10.353	2.0.10.353	02-22-2018	22-Feb-18 1:32:40 AM	12:32:40	2.0.10.248	15	5	1	5																																block5	explist														10																			11	1	10							1		0	83	617296	1500		0	0	0	4	0	9	618812	0	7	962	619774	1		0	20	619795	0		0	0	Thai_F2_maa21-4	0		0	0	618796	0	j	7	618803	exproc	block5list	F2	maa	4	21
Assim_main_chinese_500ms	111	1	<?xml version="1.0"?>\n<Clock xmlns:dt="urn:schemas-microsoft-com:datatypes"><Description dt:dt="string">E-Prime Primary Realtime Clock</Description><StartTime><Timestamp dt:dt="int">0</Timestamp><DateUtc dt:dt="string">2018-02-22T01:32:40Z</DateUtc></StartTime><FrequencyChanges><FrequencyChange><Frequency dt:dt="r8">2742373</Frequency><Timestamp dt:dt="r8">23588584154</Timestamp><Current dt:dt="r8">0</Current><DateUtc dt:dt="string">2018-02-22T01:32:40Z</DateUtc></FrequencyChange></FrequencyChanges></Clock>\n	Assim_main_chinese_500ms-111-1	60.016	1.0.0.76	1	2113923652	Professional	2.0.10.353	2.0.10.353	02-22-2018	22-Feb-18 1:32:40 AM	12:32:40	2.0.10.248	15	5	1	5																																block5	explist														11																			18	1	11							1		0	100	620895	1500		0	0	0	4	0	12	622728	0	7	1682	624410	1		0	16	624427	0		0	0	Thai_F4_maa315-6	0		0	0	622395	0	h	321	622716	exproc	block5list	F4	maa	6	315
Assim_main_chinese_500ms	111	1	<?xml version="1.0"?>\n<Clock xmlns:dt="urn:schemas-microsoft-com:datatypes"><Description dt:dt="string">E-Prime Primary Realtime Clock</Description><StartTime><Timestamp dt:dt="int">0</Timestamp><DateUtc dt:dt="string">2018-02-22T01:32:40Z</DateUtc></StartTime><FrequencyChanges><FrequencyChange><Frequency dt:dt="r8">2742373</Frequency><Timestamp dt:dt="r8">23588584154</Timestamp><Current dt:dt="r8">0</Current><DateUtc dt:dt="string">2018-02-22T01:32:40Z</DateUtc></FrequencyChange></FrequencyChanges></Clock>\n	Assim_main_chinese_500ms-111-1	60.016	1.0.0.76	1	2113923652	Professional	2.0.10.353	2.0.10.353	02-22-2018	22-Feb-18 1:32:40 AM	12:32:40	2.0.10.248	15	5	1	5																																block5	explist														12																			20	1	12							1		1	83	625510	1500		0	0	0	4	0	10	627577	0	6	2126	629703	1		0	19	629726	0		0	0	Thai_F4_maa45-4	0		0	0	627010	0	g	557	627567	exproc	block5list	F4	maa	4	45
Assim_main_chinese_500ms	111	1	<?xml version="1.0"?>\n<Clock xmlns:dt="urn:schemas-microsoft-com:datatypes"><Description dt:dt="string">E-Prime Primary Realtime Clock</Description><StartTime><Timestamp dt:dt="int">0</Timestamp><DateUtc dt:dt="string">2018-02-22T01:32:40Z</DateUtc></StartTime><FrequencyChanges><FrequencyChange><Frequency dt:dt="r8">2742373</Frequency><Timestamp dt:dt="r8">23588584154</Timestamp><Current dt:dt="r8">0</Current><DateUtc dt:dt="string">2018-02-22T01:32:40Z</DateUtc></FrequencyChange></FrequencyChanges></Clock>\n	Assim_main_chinese_500ms-111-1	60.016	1.0.0.76	1	2113923652	Professional	2.0.10.353	2.0.10.353	02-22-2018	22-Feb-18 1:32:40 AM	12:32:40	2.0.10.248	15	5	1	5																																block5	explist														13																			19	1	13							1		0	100	630826	1499		0	0	1	4	0	9	633109	0	4	2152	635261	1		0	11	635275	0		0	0	Thai_F4_maa33-5	0		0	-1	632325	0	f	774	633099	exproc	block5list	F4	maa	5	33
