ExperimentName	Subject	Session	Clock.Information	DataFile.Basename	Display.RefreshRate	ExperimentVersion	Group	RandomSeed	RuntimeCapabilities	RuntimeVersion	RuntimeVersionExpected	SessionDate	SessionStartDateTimeUtc	SessionTime	StudioVersion	Block	explist	explist.Cycle	explist.Sample	filename[Block]	insprac1.ACC	insprac1.CRESP	insprac1.DurationError	insprac1.OnsetDelay	insprac1.OnsetTime	insprac1.OnsetToOnsetTime	insprac1.RESP	insprac1.RT	insprac1.RTTime	pracCat.ACC	pracCat.CRESP	pracCat.DurationError	pracCat.OnsetDelay	pracCat.OnsetTime	pracCat.OnsetToOnsetTime	pracCat.RESP	pracCat.RT	pracCat.RTTime	praclist	praclist.Cycle	praclist.Sample	pracRate.ACC	pracRate.CRESP	pracRate.DurationError	pracRate.OnsetDelay	pracRate.OnsetTime	pracRate.OnsetToOnsetTime	pracRate.RESP	pracRate.RT	pracRate.RTTime	Procedure[Block]	Running[Block]	speaker[Block]	syllable[Block]	token[Block]	tone[Block]	waitprac2.ACC	waitprac2.CRESP	waitprac2.DurationError	waitprac2.OnsetDelay	waitprac2.OnsetTime	waitprac2.OnsetToOnsetTime	waitprac2.RESP	waitprac2.RT	waitprac2.RTTime	Trial	block1alist	block1alist.Cycle	block1alist.Sample	block1blist	block1blist.Cycle	block1blist.Sample	block2alist	block2alist.Cycle	block2alist.Sample	block2blist	block2blist.Cycle	block2blist.Sample	block3list	block3list.Cycle	block3list.Sample	block4list	block4list.Cycle	block4list.Sample	block5list	block5list.Cycle	block5list.Sample	block6list	block6list.Cycle	block6list.Sample	block7list	block7list.Cycle	block7list.Sample	expcat.ACC	expcat.CRESP	expcat.DurationError	expcat.OnsetDelay	expcat.OnsetTime	expcat.OnsetToOnsetTime	expcat.RESP	expcat.RT	expcat.RTTime	exprate.ACC	exprate.CRESP	exprate.DurationError	exprate.OnsetDelay	exprate.OnsetTime	exprate.OnsetToOnsetTime	exprate.RESP	exprate.RT	exprate.RTTime	FeedbackDisplay2.ACC	FeedbackDisplay2.CRESP	FeedbackDisplay2.DurationError	FeedbackDisplay2.OnsetDelay	FeedbackDisplay2.OnsetTime	FeedbackDisplay2.OnsetToOnsetTime	FeedbackDisplay2.RESP	FeedbackDisplay2.RT	FeedbackDisplay2.RTTime	filename[Trial]	insex1.ACC	insex1.CRESP	insex1.DurationError	insex1.OnsetDelay	insex1.OnsetTime	insex1.OnsetToOnsetTime	insex1.RESP	insex1.RT	insex1.RTTime	Procedure[Trial]	Running[Trial]	speaker[Trial]	syllable[Trial]	token[Trial]	tone[Trial]
Assim_main_vietnamese_2000ms	402	1	<?xml version="1.0"?>\n<Clock xmlns:dt="urn:schemas-microsoft-com:datatypes"><Description dt:dt="string">E-Prime Primary Realtime Clock</Description><StartTime><Timestamp dt:dt="int">0</Timestamp><DateUtc dt:dt="string">2018-05-22T00:52:37Z</DateUtc></StartTime><FrequencyChanges><FrequencyChange><Frequency dt:dt="r8">2742392</Frequency><Timestamp dt:dt="r8">255756451293</Timestamp><Current dt:dt="r8">0</Current><DateUtc dt:dt="string">2018-05-22T00:52:37Z</DateUtc></FrequencyChange></FrequencyChanges></Clock>\n	Assim_main_vietnamese_2000ms-402-1	60.017	1.0.0.83	1	-1941408840	Professional	2.0.10.353	2.0.10.353	05-22-2018	22-May-18 12:52:37 AM	10:52:37	2.0.10.248	1				Thai_F1_maa33-4	0		0	-1	38934	0	g	738	39672	1		323	140	35935	2999		0	0	4	1	1	1	4	0	12	39684	0	4	3502	43186	pracproc	praclist	F1	maa	4	33	1		0	26	43216	0		0	0																																																																							
Assim_main_vietnamese_2000ms	402	1	<?xml version="1.0"?>\n<Clock xmlns:dt="urn:schemas-microsoft-com:datatypes"><Description dt:dt="string">E-Prime Primary Realtime Clock</Description><StartTime><Timestamp dt:dt="int">0</Timestamp><DateUtc dt:dt="string">2018-05-22T00:52:37Z</DateUtc></StartTime><FrequencyChanges><FrequencyChange><Frequency dt:dt="r8">2742392</Frequency><Timestamp dt:dt="r8">255756451293</Timestamp><Current dt:dt="r8">0</Current><DateUtc dt:dt="string">2018-05-22T00:52:37Z</DateUtc></FrequencyChange></FrequencyChanges></Clock>\n	Assim_main_vietnamese_2000ms-402-1	60.017	1.0.0.83	1	-1941408840	Professional	2.0.10.353	2.0.10.353	05-22-2018	22-May-18 12:52:37 AM	10:52:37	2.0.10.248	2				Thai_F1_mii315-2	0		0	-1	47315	0	h	718	48033	1		0	100	44316	2999		0	0	8	1	2	0	4	0	15	48048	0	7	2779	50827	pracproc	praclist	F1	mii	2	315	1		0	17	50847	0		0	0																																																																							
Assim_main_vietnamese_2000ms	402	1	<?xml version="1.0"?>\n<Clock xmlns:dt="urn:schemas-microsoft-com:datatypes"><Description dt:dt="string">E-Prime Primary Realtime Clock</Description><StartTime><Timestamp dt:dt="int">0</Timestamp><DateUtc dt:dt="string">2018-05-22T00:52:37Z</DateUtc></StartTime><FrequencyChanges><FrequencyChange><Frequency dt:dt="r8">2742392</Frequency><Timestamp dt:dt="r8">255756451293</Timestamp><Current dt:dt="r8">0</Current><DateUtc dt:dt="string">2018-05-22T00:52:37Z</DateUtc></FrequencyChange></FrequencyChanges></Clock>\n	Assim_main_vietnamese_2000ms-402-1	60.017	1.0.0.83	1	-1941408840	Professional	2.0.10.353	2.0.10.353	05-22-2018	22-May-18 12:52:37 AM	10:52:37	2.0.10.248	3				Thai_F1_mii33-2	0		0	-1	54946	0	g	1596	56542	0		0	100	51947	2999	g	2806	54753	9	1	3	0	4	1	20	56562	0	6	3344	59906	pracproc	praclist	F1	mii	2	33	1		0	21	59928	0		0	0																																																																							
Assim_main_vietnamese_2000ms	402	1	<?xml version="1.0"?>\n<Clock xmlns:dt="urn:schemas-microsoft-com:datatypes"><Description dt:dt="string">E-Prime Primary Realtime Clock</Description><StartTime><Timestamp dt:dt="int">0</Timestamp><DateUtc dt:dt="string">2018-05-22T00:52:37Z</DateUtc></StartTime><FrequencyChanges><FrequencyChange><Frequency dt:dt="r8">2742392</Frequency><Timestamp dt:dt="r8">255756451293</Timestamp><Current dt:dt="r8">0</Current><DateUtc dt:dt="string">2018-05-22T00:52:37Z</DateUtc></FrequencyChange></FrequencyChanges></Clock>\n	Assim_main_vietnamese_2000ms-402-1	60.017	1.0.0.83	1	-1941408840	Professional	2.0.10.353	2.0.10.353	05-22-2018	22-May-18 12:52:37 AM	10:52:37	2.0.10.248	4				Thai_F1_maa241-1	0		0	-1	64027	0	d	991	65018	1		0	100	61028	2999		0	0	2	1	4	0	4	0	9	65027	0	6	3463	68490	pracproc	praclist	F1	maa	1	241	1		0	16	68509	0		0	0																																																																							
Assim_main_vietnamese_2000ms	402	1	<?xml version="1.0"?>\n<Clock xmlns:dt="urn:schemas-microsoft-com:datatypes"><Description dt:dt="string">E-Prime Primary Realtime Clock</Description><StartTime><Timestamp dt:dt="int">0</Timestamp><DateUtc dt:dt="string">2018-05-22T00:52:37Z</DateUtc></StartTime><FrequencyChanges><FrequencyChange><Frequency dt:dt="r8">2742392</Frequency><Timestamp dt:dt="r8">255756451293</Timestamp><Current dt:dt="r8">0</Current><DateUtc dt:dt="string">2018-05-22T00:52:37Z</DateUtc></FrequencyChange></FrequencyChanges></Clock>\n	Assim_main_vietnamese_2000ms-402-1	60.017	1.0.0.83	1	-1941408840	Professional	2.0.10.353	2.0.10.353	05-22-2018	22-May-18 12:52:37 AM	10:52:37	2.0.10.248	5				Thai_F1_mii241-1	0		0	-1	72608	0	d	982	73590	1		0	100	69609	2999		0	0	7	1	5	0	4	0	18	73608	0	5	2764	76372	pracproc	praclist	F1	mii	1	241	1		0	17	76391	0		0	0																																																																							
Assim_main_vietnamese_2000ms	402	1	<?xml version="1.0"?>\n<Clock xmlns:dt="urn:schemas-microsoft-com:datatypes"><Description dt:dt="string">E-Prime Primary Realtime Clock</Description><StartTime><Timestamp dt:dt="int">0</Timestamp><DateUtc dt:dt="string">2018-05-22T00:52:37Z</DateUtc></StartTime><FrequencyChanges><FrequencyChange><Frequency dt:dt="r8">2742392</Frequency><Timestamp dt:dt="r8">255756451293</Timestamp><Current dt:dt="r8">0</Current><DateUtc dt:dt="string">2018-05-22T00:52:37Z</DateUtc></FrequencyChange></FrequencyChanges></Clock>\n	Assim_main_vietnamese_2000ms-402-1	60.017	1.0.0.83	1	-1941408840	Professional	2.0.10.353	2.0.10.353	05-22-2018	22-May-18 12:52:37 AM	10:52:37	2.0.10.248	6				Thai_F1_maa45-3	0		0	-1	80489	0	h	767	81256	1		0	99	77490	2999		0	0	5	1	6	0	4	0	17	81273	0	7	2387	83660	pracproc	praclist	F1	maa	3	45	1		0	25	83689	0		0	0																																																																							
Assim_main_vietnamese_2000ms	402	1	<?xml version="1.0"?>\n<Clock xmlns:dt="urn:schemas-microsoft-com:datatypes"><Description dt:dt="string">E-Prime Primary Realtime Clock</Description><StartTime><Timestamp dt:dt="int">0</Timestamp><DateUtc dt:dt="string">2018-05-22T00:52:37Z</DateUtc></StartTime><FrequencyChanges><FrequencyChange><Frequency dt:dt="r8">2742392</Frequency><Timestamp dt:dt="r8">255756451293</Timestamp><Current dt:dt="r8">0</Current><DateUtc dt:dt="string">2018-05-22T00:52:37Z</DateUtc></FrequencyChange></FrequencyChanges></Clock>\n	Assim_main_vietnamese_2000ms-402-1	60.017	1.0.0.83	1	-1941408840	Professional	2.0.10.353	2.0.10.353	05-22-2018	22-May-18 12:52:37 AM	10:52:37	2.0.10.248	7				Thai_F1_maa21-1	0		1	-1	87787	0	g	944	88731	1		0	99	84788	2999		0	0	1	1	7	0	4	0	6	88737	0	7	2092	90829	pracproc	praclist	F1	maa	1	21	1		0	20	90853	0		0	0																																																																							
Assim_main_vietnamese_2000ms	402	1	<?xml version="1.0"?>\n<Clock xmlns:dt="urn:schemas-microsoft-com:datatypes"><Description dt:dt="string">E-Prime Primary Realtime Clock</Description><StartTime><Timestamp dt:dt="int">0</Timestamp><DateUtc dt:dt="string">2018-05-22T00:52:37Z</DateUtc></StartTime><FrequencyChanges><FrequencyChange><Frequency dt:dt="r8">2742392</Frequency><Timestamp dt:dt="r8">255756451293</Timestamp><Current dt:dt="r8">0</Current><DateUtc dt:dt="string">2018-05-22T00:52:37Z</DateUtc></FrequencyChange></FrequencyChanges></Clock>\n	Assim_main_vietnamese_2000ms-402-1	60.017	1.0.0.83	1	-1941408840	Professional	2.0.10.353	2.0.10.353	05-22-2018	22-May-18 12:52:37 AM	10:52:37	2.0.10.248	8				Thai_F1_mii45-1	0		0	-1	94952	0	h	1043	95995	1		0	100	91953	2999		0	0	10	1	8	0	4	0	6	96002	0	6	1795	97797	pracproc	praclist	F1	mii	1	45	1		0	21	97818	0		0	0																																																																							
Assim_main_vietnamese_2000ms	402	1	<?xml version="1.0"?>\n<Clock xmlns:dt="urn:schemas-microsoft-com:datatypes"><Description dt:dt="string">E-Prime Primary Realtime Clock</Description><StartTime><Timestamp dt:dt="int">0</Timestamp><DateUtc dt:dt="string">2018-05-22T00:52:37Z</DateUtc></StartTime><FrequencyChanges><FrequencyChange><Frequency dt:dt="r8">2742392</Frequency><Timestamp dt:dt="r8">255756451293</Timestamp><Current dt:dt="r8">0</Current><DateUtc dt:dt="string">2018-05-22T00:52:37Z</DateUtc></FrequencyChange></FrequencyChanges></Clock>\n	Assim_main_vietnamese_2000ms-402-1	60.017	1.0.0.83	1	-1941408840	Professional	2.0.10.353	2.0.10.353	05-22-2018	22-May-18 12:52:37 AM	10:52:37	2.0.10.248	9				Thai_F1_mii21-1	0		0	-1	101917	0	g	1477	103394	1		0	100	98918	2999		0	0	6	1	9	1	4	0	6	103400	0	4	2198	105598	pracproc	praclist	F1	mii	1	21	1		0	15	105616	0		0	0																																																																							
Assim_main_vietnamese_2000ms	402	1	<?xml version="1.0"?>\n<Clock xmlns:dt="urn:schemas-microsoft-com:datatypes"><Description dt:dt="string">E-Prime Primary Realtime Clock</Description><StartTime><Timestamp dt:dt="int">0</Timestamp><DateUtc dt:dt="string">2018-05-22T00:52:37Z</DateUtc></StartTime><FrequencyChanges><FrequencyChange><Frequency dt:dt="r8">2742392</Frequency><Timestamp dt:dt="r8">255756451293</Timestamp><Current dt:dt="r8">0</Current><DateUtc dt:dt="string">2018-05-22T00:52:37Z</DateUtc></FrequencyChange></FrequencyChanges></Clock>\n	Assim_main_vietnamese_2000ms-402-1	60.017	1.0.0.83	1	-1941408840	Professional	2.0.10.353	2.0.10.353	05-22-2018	22-May-18 12:52:37 AM	10:52:37	2.0.10.248	10				Thai_F1_maa315-2	0		0	-1	109715	0	h	1557	111272	1		0	100	106716	2999		0	0	3	1	10	0	4	0	9	111281	0	6	2828	114109	pracproc	praclist	F1	maa	2	315	1		0	19	114130	0		0	0																																																																							
Assim_main_vietnamese_2000ms	402	1	<?xml version="1.0"?>\n<Clock xmlns:dt="urn:schemas-microsoft-com:datatypes"><Description dt:dt="string">E-Prime Primary Realtime Clock</Description><StartTime><Timestamp dt:dt="int">0</Timestamp><DateUtc dt:dt="string">2018-05-22T00:52:37Z</DateUtc></StartTime><FrequencyChanges><FrequencyChange><Frequency dt:dt="r8">2742392</Frequency><Timestamp dt:dt="r8">255756451293</Timestamp><Current dt:dt="r8">0</Current><DateUtc dt:dt="string">2018-05-22T00:52:37Z</DateUtc></FrequencyChange></FrequencyChanges></Clock>\n	Assim_main_vietnamese_2000ms-402-1	60.017	1.0.0.83	1	-1941408840	Professional	2.0.10.353	2.0.10.353	05-22-2018	22-May-18 12:52:37 AM	10:52:37	2.0.10.248	11	7	1	1																																block7	explist														1																									17	1	1	0		1	105	132775	3000	d	2040	134815	0	4	0	13	136608	0	7	2451	139059	1		0	28	139090	0		0	0	Thai_F4_mii241-2	0		0	0	135775	0	d	820	136595	exproc	block7list	F4	mii	2	241
Assim_main_vietnamese_2000ms	402	1	<?xml version="1.0"?>\n<Clock xmlns:dt="urn:schemas-microsoft-com:datatypes"><Description dt:dt="string">E-Prime Primary Realtime Clock</Description><StartTime><Timestamp dt:dt="int">0</Timestamp><DateUtc dt:dt="string">2018-05-22T00:52:37Z</DateUtc></StartTime><FrequencyChanges><FrequencyChange><Frequency dt:dt="r8">2742392</Frequency><Timestamp dt:dt="r8">255756451293</Timestamp><Current dt:dt="r8">0</Current><DateUtc dt:dt="string">2018-05-22T00:52:37Z</DateUtc></FrequencyChange></FrequencyChanges></Clock>\n	Assim_main_vietnamese_2000ms-402-1	60.017	1.0.0.83	1	-1941408840	Professional	2.0.10.353	2.0.10.353	05-22-2018	22-May-18 12:52:37 AM	10:52:37	2.0.10.248	11	7	1	1																																block7	explist														2																									7	1	2	1		0	100	140190	2999		0	0	0	4	0	21	144106	0	7	2653	146759	1		0	29	146788	0		0	0	Thai_F2_mii241-2	0		0	-1	143189	0	d	895	144084	exproc	block7list	F2	mii	2	241
Assim_main_vietnamese_2000ms	402	1	<?xml version="1.0"?>\n<Clock xmlns:dt="urn:schemas-microsoft-com:datatypes"><Description dt:dt="string">E-Prime Primary Realtime Clock</Description><StartTime><Timestamp dt:dt="int">0</Timestamp><DateUtc dt:dt="string">2018-05-22T00:52:37Z</DateUtc></StartTime><FrequencyChanges><FrequencyChange><Frequency dt:dt="r8">2742392</Frequency><Timestamp dt:dt="r8">255756451293</Timestamp><Current dt:dt="r8">0</Current><DateUtc dt:dt="string">2018-05-22T00:52:37Z</DateUtc></FrequencyChange></FrequencyChanges></Clock>\n	Assim_main_vietnamese_2000ms-402-1	60.017	1.0.0.83	1	-1941408840	Professional	2.0.10.353	2.0.10.353	05-22-2018	22-May-18 12:52:37 AM	10:52:37	2.0.10.248	11	7	1	1																																block7	explist														3																									19	1	3	1		0	83	147871	3000		0	0	0	4	0	6	152154	0	2	1341	153495	1		0	24	153520	0		0	0	Thai_F4_mii33-5	0		0	0	150871	0	g	1277	152148	exproc	block7list	F4	mii	5	33
Assim_main_vietnamese_2000ms	402	1	<?xml version="1.0"?>\n<Clock xmlns:dt="urn:schemas-microsoft-com:datatypes"><Description dt:dt="string">E-Prime Primary Realtime Clock</Description><StartTime><Timestamp dt:dt="int">0</Timestamp><DateUtc dt:dt="string">2018-05-22T00:52:37Z</DateUtc></StartTime><FrequencyChanges><FrequencyChange><Frequency dt:dt="r8">2742392</Frequency><Timestamp dt:dt="r8">255756451293</Timestamp><Current dt:dt="r8">0</Current><DateUtc dt:dt="string">2018-05-22T00:52:37Z</DateUtc></FrequencyChange></FrequencyChanges></Clock>\n	Assim_main_vietnamese_2000ms-402-1	60.017	1.0.0.83	1	-1941408840	Professional	2.0.10.353	2.0.10.353	05-22-2018	22-May-18 12:52:37 AM	10:52:37	2.0.10.248	11	7	1	1																																block7	explist														4																									8	1	4	1		0	83	154603	2999		0	0	0	4	0	19	159018	0	6	2202	161220	1		0	13	161234	0		0	0	Thai_F2_mii315-1	0		0	-1	157602	0	h	1397	158999	exproc	block7list	F2	mii	1	315
Assim_main_vietnamese_2000ms	402	1	<?xml version="1.0"?>\n<Clock xmlns:dt="urn:schemas-microsoft-com:datatypes"><Description dt:dt="string">E-Prime Primary Realtime Clock</Description><StartTime><Timestamp dt:dt="int">0</Timestamp><DateUtc dt:dt="string">2018-05-22T00:52:37Z</DateUtc></StartTime><FrequencyChanges><FrequencyChange><Frequency dt:dt="r8">2742392</Frequency><Timestamp dt:dt="r8">255756451293</Timestamp><Current dt:dt="r8">0</Current><DateUtc dt:dt="string">2018-05-22T00:52:37Z</DateUtc></FrequencyChange></FrequencyChanges></Clock>\n	Assim_main_vietnamese_2000ms-402-1	60.017	1.0.0.83	1	-1941408840	Professional	2.0.10.353	2.0.10.353	05-22-2018	22-May-18 12:52:37 AM	10:52:37	2.0.10.248	11	7	1	1																																block7	explist														5																									14	1	5	1		0	117	162351	2999		0	0	0	4	0	8	166400	0	7	1220	167620	1		0	28	167649	0		0	0	Thai_F4_maa33-1	0		0	-1	165350	0	g	1042	166392	exproc	block7list	F4	maa	1	33
Assim_main_vietnamese_2000ms	402	1	<?xml version="1.0"?>\n<Clock xmlns:dt="urn:schemas-microsoft-com:datatypes"><Description dt:dt="string">E-Prime Primary Realtime Clock</Description><StartTime><Timestamp dt:dt="int">0</Timestamp><DateUtc dt:dt="string">2018-05-22T00:52:37Z</DateUtc></StartTime><FrequencyChanges><FrequencyChange><Frequency dt:dt="r8">2742392</Frequency><Timestamp dt:dt="r8">255756451293</Timestamp><Current dt:dt="r8">0</Current><DateUtc dt:dt="string">2018-05-22T00:52:37Z</DateUtc></FrequencyChange></FrequencyChanges></Clock>\n	Assim_main_vietnamese_2000ms-402-1	60.017	1.0.0.83	1	-1941408840	Professional	2.0.10.353	2.0.10.353	05-22-2018	22-May-18 12:52:37 AM	10:52:37	2.0.10.248	11	7	1	1																																block7	explist														6																									2	1	6	1		0	100	168749	2999		0	0	0	4	0	12	172332	0	7	836	173168	1		0	9	173181	0		0	0	Thai_F2_maa241-3	0		0	-1	171748	0	d	572	172320	exproc	block7list	F2	maa	3	241
Assim_main_vietnamese_2000ms	402	1	<?xml version="1.0"?>\n<Clock xmlns:dt="urn:schemas-microsoft-com:datatypes"><Description dt:dt="string">E-Prime Primary Realtime Clock</Description><StartTime><Timestamp dt:dt="int">0</Timestamp><DateUtc dt:dt="string">2018-05-22T00:52:37Z</DateUtc></StartTime><FrequencyChanges><FrequencyChange><Frequency dt:dt="r8">2742392</Frequency><Timestamp dt:dt="r8">255756451293</Timestamp><Current dt:dt="r8">0</Current><DateUtc dt:dt="string">2018-05-22T00:52:37Z</DateUtc></FrequencyChange></FrequencyChanges></Clock>\n	Assim_main_vietnamese_2000ms-402-1	60.017	1.0.0.83	1	-1941408840	Professional	2.0.10.353	2.0.10.353	05-22-2018	22-May-18 12:52:37 AM	10:52:37	2.0.10.248	11	7	1	1																																block7	explist														7																									4	1	7	1		0	100	174281	2999		0	0	0	4	0	13	178113	0	5	1344	179457	1		0	21	179480	0		0	0	Thai_F2_maa33-2	0		0	-1	177280	0	g	820	178100	exproc	block7list	F2	maa	2	33
Assim_main_vietnamese_2000ms	402	1	<?xml version="1.0"?>\n<Clock xmlns:dt="urn:schemas-microsoft-com:datatypes"><Description dt:dt="string">E-Prime Primary Realtime Clock</Description><StartTime><Timestamp dt:dt="int">0</Timestamp><DateUtc dt:dt="string">2018-05-22T00:52:37Z</DateUtc></StartTime><FrequencyChanges><FrequencyChange><Frequency dt:dt="r8">2742392</Frequency><Timestamp dt:dt="r8">255756451293</Timestamp><Current dt:dt="r8">0</Current><DateUtc dt:dt="string">2018-05-22T00:52:37Z</DateUtc></FrequencyChange></FrequencyChanges></Clock>\n	Assim_main_vietnamese_2000ms-402-1	60.017	1.0.0.83	1	-1941408840	Professional	2.0.10.353	2.0.10.353	05-22-2018	22-May-18 12:52:37 AM	10:52:37	2.0.10.248	11	7	1	1																																block7	explist														8																									20	1	8	1		0	99	180579	2999		0	0	0	4	0	17	185561	0	5	1287	186848	1		0	12	186861	0		0	0	Thai_F4_mii45-2	0		1	-1	183578	0	h	1966	185544	exproc	block7list	F4	mii	2	45
Assim_main_vietnamese_2000ms	402	1	<?xml version="1.0"?>\n<Clock xmlns:dt="urn:schemas-microsoft-com:datatypes"><Description dt:dt="string">E-Prime Primary Realtime Clock</Description><StartTime><Timestamp dt:dt="int">0</Timestamp><DateUtc dt:dt="string">2018-05-22T00:52:37Z</DateUtc></StartTime><FrequencyChanges><FrequencyChange><Frequency dt:dt="r8">2742392</Frequency><Timestamp dt:dt="r8">255756451293</Timestamp><Current dt:dt="r8">0</Current><DateUtc dt:dt="string">2018-05-22T00:52:37Z</DateUtc></FrequencyChange></FrequencyChanges></Clock>\n	Assim_main_vietnamese_2000ms-402-1	60.017	1.0.0.83	1	-1941408840	Professional	2.0.10.353	2.0.10.353	05-22-2018	22-May-18 12:52:37 AM	10:52:37	2.0.10.248	11	7	1	1																																block7	explist														9																									9	1	9	1		0	116	187977	2999		0	0	0	4	0	11	191693	0	7	1677	193370	1		0	20	193393	0		0	0	Thai_F2_mii33-3	0		1	-1	190976	0	g	706	191682	exproc	block7list	F2	mii	3	33
Assim_main_vietnamese_2000ms	402	1	<?xml version="1.0"?>\n<Clock xmlns:dt="urn:schemas-microsoft-com:datatypes"><Description dt:dt="string">E-Prime Primary Realtime Clock</Description><StartTime><Timestamp dt:dt="int">0</Timestamp><DateUtc dt:dt="string">2018-05-22T00:52:37Z</DateUtc></StartTime><FrequencyChanges><FrequencyChange><Frequency dt:dt="r8">2742392</Frequency><Timestamp dt:dt="r8">255756451293</Timestamp><Current dt:dt="r8">0</Current><DateUtc dt:dt="string">2018-05-22T00:52:37Z</DateUtc></FrequencyChange></FrequencyChanges></Clock>\n	Assim_main_vietnamese_2000ms-402-1	60.017	1.0.0.83	1	-1941408840	Professional	2.0.10.353	2.0.10.353	05-22-2018	22-May-18 12:52:37 AM	10:52:37	2.0.10.248	11	7	1	1																																block7	explist														10																									12	1	10	1		0	116	194509	2999		0	0	1	4	1	9	198524	0	4	2177	200701	1		0	23	200724	0		0	0	Thai_F4_maa241-5	0		0	-1	197508	0	d	1007	198515	exproc	block7list	F4	maa	5	241
Assim_main_vietnamese_2000ms	402	1	<?xml version="1.0"?>\n<Clock xmlns:dt="urn:schemas-microsoft-com:datatypes"><Description dt:dt="string">E-Prime Primary Realtime Clock</Description><StartTime><Timestamp dt:dt="int">0</Timestamp><DateUtc dt:dt="string">2018-05-22T00:52:37Z</DateUtc></StartTime><FrequencyChanges><FrequencyChange><Frequency dt:dt="r8">2742392</Frequency><Timestamp dt:dt="r8">255756451293</Timestamp><Current dt:dt="r8">0</Current><DateUtc dt:dt="string">2018-05-22T00:52:37Z</DateUtc></FrequencyChange></FrequencyChanges></Clock>\n	Assim_main_vietnamese_2000ms-402-1	60.017	1.0.0.83	1	-1941408840	Professional	2.0.10.353	2.0.10.353	05-22-2018	22-May-18 12:52:37 AM	10:52:37	2.0.10.248	11	7	1	1																																block7	explist														11																									10	1	11	1		0	100	201824	2999		0	0	0	4	0	8	205589	0	5	3050	208639	1		0	15	208655	0		0	0	Thai_F2_mii45-2	0		0	-1	204823	0	h	758	205581	exproc	block7list	F2	mii	2	45
Assim_main_vietnamese_2000ms	402	1	<?xml version="1.0"?>\n<Clock xmlns:dt="urn:schemas-microsoft-com:datatypes"><Description dt:dt="string">E-Prime Primary Realtime Clock</Description><StartTime><Timestamp dt:dt="int">0</Timestamp><DateUtc dt:dt="string">2018-05-22T00:52:37Z</DateUtc></StartTime><FrequencyChanges><FrequencyChange><Frequency dt:dt="r8">2742392</Frequency><Timestamp dt:dt="r8">255756451293</Timestamp><Current dt:dt="r8">0</Current><DateUtc dt:dt="string">2018-05-22T00:52:37Z</DateUtc></FrequencyChange></FrequencyChanges></Clock>\n	Assim_main_vietnamese_2000ms-402-1	60.017	1.0.0.83	1	-1941408840	Professional	2.0.10.353	2.0.10.353	05-22-2018	22-May-18 12:52:37 AM	10:52:37	2.0.10.248	11	7	1	1																																block7	explist														12																									3	1	12	1		0	83	209738	2999		0	0	0	4	0	17	213720	0	7	1582	215302	1		0	16	215320	0		0	0	Thai_F2_maa315-2	0		0	-1	212737	0	h	966	213703	exproc	block7list	F2	maa	2	315
Assim_main_vietnamese_2000ms	402	1	<?xml version="1.0"?>\n<Clock xmlns:dt="urn:schemas-microsoft-com:datatypes"><Description dt:dt="string">E-Prime Primary Realtime Clock</Description><StartTime><Timestamp dt:dt="int">0</Timestamp><DateUtc dt:dt="string">2018-05-22T00:52:37Z</DateUtc></StartTime><FrequencyChanges><FrequencyChange><Frequency dt:dt="r8">2742392</Frequency><Timestamp dt:dt="r8">255756451293</Timestamp><Current dt:dt="r8">0</Current><DateUtc dt:dt="string">2018-05-22T00:52:37Z</DateUtc></FrequencyChange></FrequencyChanges></Clock>\n	Assim_main_vietnamese_2000ms-402-1	60.017	1.0.0.83	1	-1941408840	Professional	2.0.10.353	2.0.10.353	05-22-2018	22-May-18 12:52:37 AM	10:52:37	2.0.10.248	11	7	1	1																																block7	explist														13																									6	1	13	0		0	83	216403	2999	g	2695	219098	0	4	0	22	220352	0	7	1805	222157	1		0	10	222168	0		0	0	Thai_F2_mii21-2	0		0	-1	219402	0	g	928	220330	exproc	block7list	F2	mii	2	21
Assim_main_vietnamese_2000ms	402	1	<?xml version="1.0"?>\n<Clock xmlns:dt="urn:schemas-microsoft-com:datatypes"><Description dt:dt="string">E-Prime Primary Realtime Clock</Description><StartTime><Timestamp dt:dt="int">0</Timestamp><DateUtc dt:dt="string">2018-05-22T00:52:37Z</DateUtc></StartTime><FrequencyChanges><FrequencyChange><Frequency dt:dt="r8">2742392</Frequency><Timestamp dt:dt="r8">255756451293</Timestamp><Current dt:dt="r8">0</Current><DateUtc dt:dt="string">2018-05-22T00:52:37Z</DateUtc></FrequencyChange></FrequencyChanges></Clock>\n	Assim_main_vietnamese_2000ms-402-1	60.017	1.0.0.83	1	-1941408840	Professional	2.0.10.353	2.0.10.353	05-22-2018	22-May-18 12:52:37 AM	10:52:37	2.0.10.248	11	7	1	1																																block7	explist														14																									18	1	14	1		0	100	223268	2999		0	0	0	4	0	20	226767	0	7	1313	228080	1		0	19	228100	0		0	0	Thai_F4_mii315-4	0		0	-1	226267	0	h	480	226747	exproc	block7list	F4	mii	4	315
Assim_main_vietnamese_2000ms	402	1	<?xml version="1.0"?>\n<Clock xmlns:dt="urn:schemas-microsoft-com:datatypes"><Description dt:dt="string">E-Prime Primary Realtime Clock</Description><StartTime><Timestamp dt:dt="int">0</Timestamp><DateUtc dt:dt="string">2018-05-22T00:52:37Z</DateUtc></StartTime><FrequencyChanges><FrequencyChange><Frequency dt:dt="r8">2742392</Frequency><Timestamp dt:dt="r8">255756451293</Timestamp><Current dt:dt="r8">0</Current><DateUtc dt:dt="string">2018-05-22T00:52:37Z</DateUtc></FrequencyChange></FrequencyChanges></Clock>\n	Assim_main_vietnamese_2000ms-402-1	60.017	1.0.0.83	1	-1941408840	Professional	2.0.10.353	2.0.10.353	05-22-2018	22-May-18 12:52:37 AM	10:52:37	2.0.10.248	11	7	1	1																																block7	explist														15																									5	1	15	1		0	116	229216	2999		0	0	1	4	0	13	233249	0	4	1296	234545	1		0	19	234565	0		0	0	Thai_F2_maa45-1	0		0	-1	232215	0	h	1021	233236	exproc	block7list	F2	maa	1	45
Assim_main_vietnamese_2000ms	402	1	<?xml version="1.0"?>\n<Clock xmlns:dt="urn:schemas-microsoft-com:datatypes"><Description dt:dt="string">E-Prime Primary Realtime Clock</Description><StartTime><Timestamp dt:dt="int">0</Timestamp><DateUtc dt:dt="string">2018-05-22T00:52:37Z</DateUtc></StartTime><FrequencyChanges><FrequencyChange><Frequency dt:dt="r8">2742392</Frequency><Timestamp dt:dt="r8">255756451293</Timestamp><Current dt:dt="r8">0</Current><DateUtc dt:dt="string">2018-05-22T00:52:37Z</DateUtc></FrequencyChange></FrequencyChanges></Clock>\n	Assim_main_vietnamese_2000ms-402-1	60.017	1.0.0.83	1	-1941408840	Professional	2.0.10.353	2.0.10.353	05-22-2018	22-May-18 12:52:37 AM	10:52:37	2.0.10.248	11	7	1	1																																block7	explist														16																									16	1	16	1		0	100	235665	2999		0	0	0	4	0	21	239647	0	7	1925	241572	1		0	21	241596	0		0	0	Thai_F4_mii21-2	0		0	-1	238664	0	g	962	239626	exproc	block7list	F4	mii	2	21
Assim_main_vietnamese_2000ms	402	1	<?xml version="1.0"?>\n<Clock xmlns:dt="urn:schemas-microsoft-com:datatypes"><Description dt:dt="string">E-Prime Primary Realtime Clock</Description><StartTime><Timestamp dt:dt="int">0</Timestamp><DateUtc dt:dt="string">2018-05-22T00:52:37Z</DateUtc></StartTime><FrequencyChanges><FrequencyChange><Frequency dt:dt="r8">2742392</Frequency><Timestamp dt:dt="r8">255756451293</Timestamp><Current dt:dt="r8">0</Current><DateUtc dt:dt="string">2018-05-22T00:52:37Z</DateUtc></FrequencyChange></FrequencyChanges></Clock>\n	Assim_main_vietnamese_2000ms-402-1	60.017	1.0.0.83	1	-1941408840	Professional	2.0.10.353	2.0.10.353	05-22-2018	22-May-18 12:52:37 AM	10:52:37	2.0.10.248	11	7	1	1																																block7	explist														17																									11	1	17	1		0	100	242696	2999		0	0	0	4	0	21	246228	0	7	1905	248133	1		0	28	248161	0		0	0	Thai_F4_maa21-1	0		0	-1	245695	0	g	512	246207	exproc	block7list	F4	maa	1	21
Assim_main_vietnamese_2000ms	402	1	<?xml version="1.0"?>\n<Clock xmlns:dt="urn:schemas-microsoft-com:datatypes"><Description dt:dt="string">E-Prime Primary Realtime Clock</Description><StartTime><Timestamp dt:dt="int">0</Timestamp><DateUtc dt:dt="string">2018-05-22T00:52:37Z</DateUtc></StartTime><FrequencyChanges><FrequencyChange><Frequency dt:dt="r8">2742392</Frequency><Timestamp dt:dt="r8">255756451293</Timestamp><Current dt:dt="r8">0</Current><DateUtc dt:dt="string">2018-05-22T00:52:37Z</DateUtc></FrequencyChange></FrequencyChanges></Clock>\n	Assim_main_vietnamese_2000ms-402-1	60.017	1.0.0.83	1	-1941408840	Professional	2.0.10.353	2.0.10.353	05-22-2018	22-May-18 12:52:37 AM	10:52:37	2.0.10.248	11	7	1	1																																block7	explist														18																									15	1	18	1		0	100	249261	2999		0	0	0	4	0	21	252760	0	7	2135	254895	1		0	13	254909	0		0	0	Thai_F4_maa45-3	0		0	-1	252260	0	h	479	252739	exproc	block7list	F4	maa	3	45
Assim_main_vietnamese_2000ms	402	1	<?xml version="1.0"?>\n<Clock xmlns:dt="urn:schemas-microsoft-com:datatypes"><Description dt:dt="string">E-Prime Primary Realtime Clock</Description><StartTime><Timestamp dt:dt="int">0</Timestamp><DateUtc dt:dt="string">2018-05-22T00:52:37Z</DateUtc></StartTime><FrequencyChanges><FrequencyChange><Frequency dt:dt="r8">2742392</Frequency><Timestamp dt:dt="r8">255756451293</Timestamp><Current dt:dt="r8">0</Current><DateUtc dt:dt="string">2018-05-22T00:52:37Z</DateUtc></FrequencyChange></FrequencyChanges></Clock>\n	Assim_main_vietnamese_2000ms-402-1	60.017	1.0.0.83	1	-1941408840	Professional	2.0.10.353	2.0.10.353	05-22-2018	22-May-18 12:52:37 AM	10:52:37	2.0.10.248	11	7	1	1																																block7	explist														19																									1	1	19	1		0	100	256009	2999		0	0	0	4	0	13	259691	0	6	2190	261881	1		0	25	261907	0		0	0	Thai_F2_maa21-1	0		0	-1	259008	0	g	670	259678	exproc	block7list	F2	maa	1	21
Assim_main_vietnamese_2000ms	402	1	<?xml version="1.0"?>\n<Clock xmlns:dt="urn:schemas-microsoft-com:datatypes"><Description dt:dt="string">E-Prime Primary Realtime Clock</Description><StartTime><Timestamp dt:dt="int">0</Timestamp><DateUtc dt:dt="string">2018-05-22T00:52:37Z</DateUtc></StartTime><FrequencyChanges><FrequencyChange><Frequency dt:dt="r8">2742392</Frequency><Timestamp dt:dt="r8">255756451293</Timestamp><Current dt:dt="r8">0</Current><DateUtc dt:dt="string">2018-05-22T00:52:37Z</DateUtc></FrequencyChange></FrequencyChanges></Clock>\n	Assim_main_vietnamese_2000ms-402-1	60.017	1.0.0.83	1	-1941408840	Professional	2.0.10.353	2.0.10.353	05-22-2018	22-May-18 12:52:37 AM	10:52:37	2.0.10.248	11	7	1	1																																block7	explist														20																									13	1	20	1		0	117	263024	2999		0	0	0	4	0	11	267273	0	5	2732	270005	1		0	15	270022	0		0	0	Thai_F4_maa315-5	0		0	-1	266023	0	h	1239	267262	exproc	block7list	F4	maa	5	315
Assim_main_vietnamese_2000ms	402	1	<?xml version="1.0"?>\n<Clock xmlns:dt="urn:schemas-microsoft-com:datatypes"><Description dt:dt="string">E-Prime Primary Realtime Clock</Description><StartTime><Timestamp dt:dt="int">0</Timestamp><DateUtc dt:dt="string">2018-05-22T00:52:37Z</DateUtc></StartTime><FrequencyChanges><FrequencyChange><Frequency dt:dt="r8">2742392</Frequency><Timestamp dt:dt="r8">255756451293</Timestamp><Current dt:dt="r8">0</Current><DateUtc dt:dt="string">2018-05-22T00:52:37Z</DateUtc></FrequencyChange></FrequencyChanges></Clock>\n	Assim_main_vietnamese_2000ms-402-1	60.017	1.0.0.83	1	-1941408840	Professional	2.0.10.353	2.0.10.353	05-22-2018	22-May-18 12:52:37 AM	10:52:37	2.0.10.248	12	4	1	2																																block4	explist														1																16	1	1										1		0	109	273554	3000		0	0	0	4	1	7	277153	0	2	2275	279428	1		0	24	279453	0		0	0	Thai_F4_mii21-6	0		0	0	276554	0	g	592	277146	exproc	block4list	F4	mii	6	21
Assim_main_vietnamese_2000ms	402	1	<?xml version="1.0"?>\n<Clock xmlns:dt="urn:schemas-microsoft-com:datatypes"><Description dt:dt="string">E-Prime Primary Realtime Clock</Description><StartTime><Timestamp dt:dt="int">0</Timestamp><DateUtc dt:dt="string">2018-05-22T00:52:37Z</DateUtc></StartTime><FrequencyChanges><FrequencyChange><Frequency dt:dt="r8">2742392</Frequency><Timestamp dt:dt="r8">255756451293</Timestamp><Current dt:dt="r8">0</Current><DateUtc dt:dt="string">2018-05-22T00:52:37Z</DateUtc></FrequencyChange></FrequencyChanges></Clock>\n	Assim_main_vietnamese_2000ms-402-1	60.017	1.0.0.83	1	-1941408840	Professional	2.0.10.353	2.0.10.353	05-22-2018	22-May-18 12:52:37 AM	10:52:37	2.0.10.248	12	4	1	2																																block4	explist														2																5	1	2										1		1	99	280552	3000		0	0	1	4	1	13	284401	0	4	2694	287095	1		0	21	287117	0		0	0	Thai_F4_maa45-3	0		0	0	283552	0	h	836	284388	exproc	block4list	F4	maa	3	45
Assim_main_vietnamese_2000ms	402	1	<?xml version="1.0"?>\n<Clock xmlns:dt="urn:schemas-microsoft-com:datatypes"><Description dt:dt="string">E-Prime Primary Realtime Clock</Description><StartTime><Timestamp dt:dt="int">0</Timestamp><DateUtc dt:dt="string">2018-05-22T00:52:37Z</DateUtc></StartTime><FrequencyChanges><FrequencyChange><Frequency dt:dt="r8">2742392</Frequency><Timestamp dt:dt="r8">255756451293</Timestamp><Current dt:dt="r8">0</Current><DateUtc dt:dt="string">2018-05-22T00:52:37Z</DateUtc></FrequencyChange></FrequencyChanges></Clock>\n	Assim_main_vietnamese_2000ms-402-1	60.017	1.0.0.83	1	-1941408840	Professional	2.0.10.353	2.0.10.353	05-22-2018	22-May-18 12:52:37 AM	10:52:37	2.0.10.248	12	4	1	2																																block4	explist														3																20	1	3										1		0	100	288217	2999		0	0	0	4	0	19	292033	0	7	1384	293417	1		0	12	293432	0		0	0	Thai_F4_mii45-3	0		0	-1	291216	0	h	798	292014	exproc	block4list	F4	mii	3	45
Assim_main_vietnamese_2000ms	402	1	<?xml version="1.0"?>\n<Clock xmlns:dt="urn:schemas-microsoft-com:datatypes"><Description dt:dt="string">E-Prime Primary Realtime Clock</Description><StartTime><Timestamp dt:dt="int">0</Timestamp><DateUtc dt:dt="string">2018-05-22T00:52:37Z</DateUtc></StartTime><FrequencyChanges><FrequencyChange><Frequency dt:dt="r8">2742392</Frequency><Timestamp dt:dt="r8">255756451293</Timestamp><Current dt:dt="r8">0</Current><DateUtc dt:dt="string">2018-05-22T00:52:37Z</DateUtc></FrequencyChange></FrequencyChanges></Clock>\n	Assim_main_vietnamese_2000ms-402-1	60.017	1.0.0.83	1	-1941408840	Professional	2.0.10.353	2.0.10.353	05-22-2018	22-May-18 12:52:37 AM	10:52:37	2.0.10.248	12	4	1	2																																block4	explist														4																1	1	4										1		0	117	294549	2999		0	0	0	4	0	15	298731	0	6	1867	300598	1		0	16	300614	0		0	0	Thai_F4_maa21-1	0		0	-1	297548	0	g	1168	298716	exproc	block4list	F4	maa	1	21
Assim_main_vietnamese_2000ms	402	1	<?xml version="1.0"?>\n<Clock xmlns:dt="urn:schemas-microsoft-com:datatypes"><Description dt:dt="string">E-Prime Primary Realtime Clock</Description><StartTime><Timestamp dt:dt="int">0</Timestamp><DateUtc dt:dt="string">2018-05-22T00:52:37Z</DateUtc></StartTime><FrequencyChanges><FrequencyChange><Frequency dt:dt="r8">2742392</Frequency><Timestamp dt:dt="r8">255756451293</Timestamp><Current dt:dt="r8">0</Current><DateUtc dt:dt="string">2018-05-22T00:52:37Z</DateUtc></FrequencyChange></FrequencyChanges></Clock>\n	Assim_main_vietnamese_2000ms-402-1	60.017	1.0.0.83	1	-1941408840	Professional	2.0.10.353	2.0.10.353	05-22-2018	22-May-18 12:52:37 AM	10:52:37	2.0.10.248	12	4	1	2																																block4	explist														5																10	1	5										1		0	83	301697	2999		0	0	0	4	0	9	306029	0	7	1413	307442	1		0	16	307462	0		0	0	Thai_F4_mii45-2	0		0	-1	304696	0	h	1324	306020	exproc	block4list	F4	mii	2	45
Assim_main_vietnamese_2000ms	402	1	<?xml version="1.0"?>\n<Clock xmlns:dt="urn:schemas-microsoft-com:datatypes"><Description dt:dt="string">E-Prime Primary Realtime Clock</Description><StartTime><Timestamp dt:dt="int">0</Timestamp><DateUtc dt:dt="string">2018-05-22T00:52:37Z</DateUtc></StartTime><FrequencyChanges><FrequencyChange><Frequency dt:dt="r8">2742392</Frequency><Timestamp dt:dt="r8">255756451293</Timestamp><Current dt:dt="r8">0</Current><DateUtc dt:dt="string">2018-05-22T00:52:37Z</DateUtc></FrequencyChange></FrequencyChanges></Clock>\n	Assim_main_vietnamese_2000ms-402-1	60.017	1.0.0.83	1	-1941408840	Professional	2.0.10.353	2.0.10.353	05-22-2018	22-May-18 12:52:37 AM	10:52:37	2.0.10.248	12	4	1	2																																block4	explist														6																11	1	6										1		0	100	308562	2999		0	0	0	4	0	17	312027	0	7	1720	313747	1		0	11	313760	0		0	0	Thai_F4_maa21-4	0		0	-1	311561	0	g	449	312010	exproc	block4list	F4	maa	4	21
Assim_main_vietnamese_2000ms	402	1	<?xml version="1.0"?>\n<Clock xmlns:dt="urn:schemas-microsoft-com:datatypes"><Description dt:dt="string">E-Prime Primary Realtime Clock</Description><StartTime><Timestamp dt:dt="int">0</Timestamp><DateUtc dt:dt="string">2018-05-22T00:52:37Z</DateUtc></StartTime><FrequencyChanges><FrequencyChange><Frequency dt:dt="r8">2742392</Frequency><Timestamp dt:dt="r8">255756451293</Timestamp><Current dt:dt="r8">0</Current><DateUtc dt:dt="string">2018-05-22T00:52:37Z</DateUtc></FrequencyChange></FrequencyChanges></Clock>\n	Assim_main_vietnamese_2000ms-402-1	60.017	1.0.0.83	1	-1941408840	Professional	2.0.10.353	2.0.10.353	05-22-2018	22-May-18 12:52:37 AM	10:52:37	2.0.10.248	12	4	1	2																																block4	explist														7																14	1	7										1		0	117	314877	2999		0	0	0	4	0	21	318476	0	1	878	319354	1		0	19	319375	0		0	0	Thai_F4_maa33-5	0		0	-1	317876	0	d	579	318455	exproc	block4list	F4	maa	5	33
Assim_main_vietnamese_2000ms	402	1	<?xml version="1.0"?>\n<Clock xmlns:dt="urn:schemas-microsoft-com:datatypes"><Description dt:dt="string">E-Prime Primary Realtime Clock</Description><StartTime><Timestamp dt:dt="int">0</Timestamp><DateUtc dt:dt="string">2018-05-22T00:52:37Z</DateUtc></StartTime><FrequencyChanges><FrequencyChange><Frequency dt:dt="r8">2742392</Frequency><Timestamp dt:dt="r8">255756451293</Timestamp><Current dt:dt="r8">0</Current><DateUtc dt:dt="string">2018-05-22T00:52:37Z</DateUtc></FrequencyChange></FrequencyChanges></Clock>\n	Assim_main_vietnamese_2000ms-402-1	60.017	1.0.0.83	1	-1941408840	Professional	2.0.10.353	2.0.10.353	05-22-2018	22-May-18 12:52:37 AM	10:52:37	2.0.10.248	12	4	1	2																																block4	explist														8																17	1	8										1		0	100	320475	2999		0	0	0	4	0	19	324524	0	7	1797	326321	1		0	17	326340	0		0	0	Thai_F4_mii241-5	0		0	-1	323474	0	d	1030	324504	exproc	block4list	F4	mii	5	241
Assim_main_vietnamese_2000ms	402	1	<?xml version="1.0"?>\n<Clock xmlns:dt="urn:schemas-microsoft-com:datatypes"><Description dt:dt="string">E-Prime Primary Realtime Clock</Description><StartTime><Timestamp dt:dt="int">0</Timestamp><DateUtc dt:dt="string">2018-05-22T00:52:37Z</DateUtc></StartTime><FrequencyChanges><FrequencyChange><Frequency dt:dt="r8">2742392</Frequency><Timestamp dt:dt="r8">255756451293</Timestamp><Current dt:dt="r8">0</Current><DateUtc dt:dt="string">2018-05-22T00:52:37Z</DateUtc></FrequencyChange></FrequencyChanges></Clock>\n	Assim_main_vietnamese_2000ms-402-1	60.017	1.0.0.83	1	-1941408840	Professional	2.0.10.353	2.0.10.353	05-22-2018	22-May-18 12:52:37 AM	10:52:37	2.0.10.248	12	4	1	2																																block4	explist														9																9	1	9										1		0	100	327440	2999		0	0	0	4	0	16	331222	0	7	2367	333589	1		0	13	333605	0		0	0	Thai_F4_mii33-5	0		0	-1	330439	0	g	767	331206	exproc	block4list	F4	mii	5	33
Assim_main_vietnamese_2000ms	402	1	<?xml version="1.0"?>\n<Clock xmlns:dt="urn:schemas-microsoft-com:datatypes"><Description dt:dt="string">E-Prime Primary Realtime Clock</Description><StartTime><Timestamp dt:dt="int">0</Timestamp><DateUtc dt:dt="string">2018-05-22T00:52:37Z</DateUtc></StartTime><FrequencyChanges><FrequencyChange><Frequency dt:dt="r8">2742392</Frequency><Timestamp dt:dt="r8">255756451293</Timestamp><Current dt:dt="r8">0</Current><DateUtc dt:dt="string">2018-05-22T00:52:37Z</DateUtc></FrequencyChange></FrequencyChanges></Clock>\n	Assim_main_vietnamese_2000ms-402-1	60.017	1.0.0.83	1	-1941408840	Professional	2.0.10.353	2.0.10.353	05-22-2018	22-May-18 12:52:37 AM	10:52:37	2.0.10.248	12	4	1	2																																block4	explist														10																8	1	10										1		0	83	334688	2999		0	0	0	4	0	10	338337	0	7	1695	340032	1		0	21	340053	0		0	0	Thai_F4_mii315-4	0		0	-1	337687	0	h	640	338327	exproc	block4list	F4	mii	4	315
Assim_main_vietnamese_2000ms	402	1	<?xml version="1.0"?>\n<Clock xmlns:dt="urn:schemas-microsoft-com:datatypes"><Description dt:dt="string">E-Prime Primary Realtime Clock</Description><StartTime><Timestamp dt:dt="int">0</Timestamp><DateUtc dt:dt="string">2018-05-22T00:52:37Z</DateUtc></StartTime><FrequencyChanges><FrequencyChange><Frequency dt:dt="r8">2742392</Frequency><Timestamp dt:dt="r8">255756451293</Timestamp><Current dt:dt="r8">0</Current><DateUtc dt:dt="string">2018-05-22T00:52:37Z</DateUtc></FrequencyChange></FrequencyChanges></Clock>\n	Assim_main_vietnamese_2000ms-402-1	60.017	1.0.0.83	1	-1941408840	Professional	2.0.10.353	2.0.10.353	05-22-2018	22-May-18 12:52:37 AM	10:52:37	2.0.10.248	12	4	1	2																																block4	explist														11																4	1	11										1		0	100	341153	2999		0	0	0	4	0	10	344835	0	7	2122	346957	1		0	25	346985	0		0	0	Thai_F4_maa33-1	0		0	-1	344152	0	g	673	344825	exproc	block4list	F4	maa	1	33
Assim_main_vietnamese_2000ms	402	1	<?xml version="1.0"?>\n<Clock xmlns:dt="urn:schemas-microsoft-com:datatypes"><Description dt:dt="string">E-Prime Primary Realtime Clock</Description><StartTime><Timestamp dt:dt="int">0</Timestamp><DateUtc dt:dt="string">2018-05-22T00:52:37Z</DateUtc></StartTime><FrequencyChanges><FrequencyChange><Frequency dt:dt="r8">2742392</Frequency><Timestamp dt:dt="r8">255756451293</Timestamp><Current dt:dt="r8">0</Current><DateUtc dt:dt="string">2018-05-22T00:52:37Z</DateUtc></FrequencyChange></FrequencyChanges></Clock>\n	Assim_main_vietnamese_2000ms-402-1	60.017	1.0.0.83	1	-1941408840	Professional	2.0.10.353	2.0.10.353	05-22-2018	22-May-18 12:52:37 AM	10:52:37	2.0.10.248	12	4	1	2																																block4	explist														12																2	1	12										1		0	116	348101	2999		0	0	1	4	0	14	351933	0	4	1949	353882	1		0	18	353900	0		0	0	Thai_F4_maa241-5	0		0	-1	351100	0	d	819	351919	exproc	block4list	F4	maa	5	241
Assim_main_vietnamese_2000ms	402	1	<?xml version="1.0"?>\n<Clock xmlns:dt="urn:schemas-microsoft-com:datatypes"><Description dt:dt="string">E-Prime Primary Realtime Clock</Description><StartTime><Timestamp dt:dt="int">0</Timestamp><DateUtc dt:dt="string">2018-05-22T00:52:37Z</DateUtc></StartTime><FrequencyChanges><FrequencyChange><Frequency dt:dt="r8">2742392</Frequency><Timestamp dt:dt="r8">255756451293</Timestamp><Current dt:dt="r8">0</Current><DateUtc dt:dt="string">2018-05-22T00:52:37Z</DateUtc></FrequencyChange></FrequencyChanges></Clock>\n	Assim_main_vietnamese_2000ms-402-1	60.017	1.0.0.83	1	-1941408840	Professional	2.0.10.353	2.0.10.353	05-22-2018	22-May-18 12:52:37 AM	10:52:37	2.0.10.248	12	4	1	2																																block4	explist														13																7	1	13										1		0	99	354999	2999		0	0	0	4	0	12	359665	0	7	1003	360668	1		0	12	360681	0		0	0	Thai_F4_mii241-2	0		0	-1	357998	0	d	1655	359653	exproc	block4list	F4	mii	2	241
Assim_main_vietnamese_2000ms	402	1	<?xml version="1.0"?>\n<Clock xmlns:dt="urn:schemas-microsoft-com:datatypes"><Description dt:dt="string">E-Prime Primary Realtime Clock</Description><StartTime><Timestamp dt:dt="int">0</Timestamp><DateUtc dt:dt="string">2018-05-22T00:52:37Z</DateUtc></StartTime><FrequencyChanges><FrequencyChange><Frequency dt:dt="r8">2742392</Frequency><Timestamp dt:dt="r8">255756451293</Timestamp><Current dt:dt="r8">0</Current><DateUtc dt:dt="string">2018-05-22T00:52:37Z</DateUtc></FrequencyChange></FrequencyChanges></Clock>\n	Assim_main_vietnamese_2000ms-402-1	60.017	1.0.0.83	1	-1941408840	Professional	2.0.10.353	2.0.10.353	05-22-2018	22-May-18 12:52:37 AM	10:52:37	2.0.10.248	12	4	1	2																																block4	explist														14																18	1	14										1		0	116	361797	3000		0	0	0	4	0	12	365330	0	7	1164	366494	1		0	16	366513	0		0	0	Thai_F4_mii315-6	0		0	0	364797	0	h	521	365318	exproc	block4list	F4	mii	6	315
Assim_main_vietnamese_2000ms	402	1	<?xml version="1.0"?>\n<Clock xmlns:dt="urn:schemas-microsoft-com:datatypes"><Description dt:dt="string">E-Prime Primary Realtime Clock</Description><StartTime><Timestamp dt:dt="int">0</Timestamp><DateUtc dt:dt="string">2018-05-22T00:52:37Z</DateUtc></StartTime><FrequencyChanges><FrequencyChange><Frequency dt:dt="r8">2742392</Frequency><Timestamp dt:dt="r8">255756451293</Timestamp><Current dt:dt="r8">0</Current><DateUtc dt:dt="string">2018-05-22T00:52:37Z</DateUtc></FrequencyChange></FrequencyChanges></Clock>\n	Assim_main_vietnamese_2000ms-402-1	60.017	1.0.0.83	1	-1941408840	Professional	2.0.10.353	2.0.10.353	05-22-2018	22-May-18 12:52:37 AM	10:52:37	2.0.10.248	12	4	1	2																																block4	explist														15																3	1	15										1		0	100	367613	2999		0	0	0	4	1	6	371711	4016		0	0	0		0	16	375727	0	1	154	375881	Thai_F4_maa315-5	0		0	-1	370612	0	h	1093	371705	exproc	block4list	F4	maa	5	315
Assim_main_vietnamese_2000ms	402	1	<?xml version="1.0"?>\n<Clock xmlns:dt="urn:schemas-microsoft-com:datatypes"><Description dt:dt="string">E-Prime Primary Realtime Clock</Description><StartTime><Timestamp dt:dt="int">0</Timestamp><DateUtc dt:dt="string">2018-05-22T00:52:37Z</DateUtc></StartTime><FrequencyChanges><FrequencyChange><Frequency dt:dt="r8">2742392</Frequency><Timestamp dt:dt="r8">255756451293</Timestamp><Current dt:dt="r8">0</Current><DateUtc dt:dt="string">2018-05-22T00:52:37Z</DateUtc></FrequencyChange></FrequencyChanges></Clock>\n	Assim_main_vietnamese_2000ms-402-1	60.017	1.0.0.83	1	-1941408840	Professional	2.0.10.353	2.0.10.353	05-22-2018	22-May-18 12:52:37 AM	10:52:37	2.0.10.248	12	4	1	2																																block4	explist														16																15	1	16										1		0	100	376827	2999		0	0	0	4	0	-1	382825	0	7	1509	384334	1		0	23	384358	0		0	0	Thai_F4_maa45-4	1		0	-1	379826	2999		0	0	exproc	block4list	F4	maa	4	45
Assim_main_vietnamese_2000ms	402	1	<?xml version="1.0"?>\n<Clock xmlns:dt="urn:schemas-microsoft-com:datatypes"><Description dt:dt="string">E-Prime Primary Realtime Clock</Description><StartTime><Timestamp dt:dt="int">0</Timestamp><DateUtc dt:dt="string">2018-05-22T00:52:37Z</DateUtc></StartTime><FrequencyChanges><FrequencyChange><Frequency dt:dt="r8">2742392</Frequency><Timestamp dt:dt="r8">255756451293</Timestamp><Current dt:dt="r8">0</Current><DateUtc dt:dt="string">2018-05-22T00:52:37Z</DateUtc></FrequencyChange></FrequencyChanges></Clock>\n	Assim_main_vietnamese_2000ms-402-1	60.017	1.0.0.83	1	-1941408840	Professional	2.0.10.353	2.0.10.353	05-22-2018	22-May-18 12:52:37 AM	10:52:37	2.0.10.248	12	4	1	2																																block4	explist														17																6	1	17										1		0	116	385474	3000		0	0	0	4	0	18	388890	0	6	2005	390895	1		0	10	390906	0		0	0	Thai_F4_mii21-2	0		0	0	388474	0	g	398	388872	exproc	block4list	F4	mii	2	21
Assim_main_vietnamese_2000ms	402	1	<?xml version="1.0"?>\n<Clock xmlns:dt="urn:schemas-microsoft-com:datatypes"><Description dt:dt="string">E-Prime Primary Realtime Clock</Description><StartTime><Timestamp dt:dt="int">0</Timestamp><DateUtc dt:dt="string">2018-05-22T00:52:37Z</DateUtc></StartTime><FrequencyChanges><FrequencyChange><Frequency dt:dt="r8">2742392</Frequency><Timestamp dt:dt="r8">255756451293</Timestamp><Current dt:dt="r8">0</Current><DateUtc dt:dt="string">2018-05-22T00:52:37Z</DateUtc></FrequencyChange></FrequencyChanges></Clock>\n	Assim_main_vietnamese_2000ms-402-1	60.017	1.0.0.83	1	-1941408840	Professional	2.0.10.353	2.0.10.353	05-22-2018	22-May-18 12:52:37 AM	10:52:37	2.0.10.248	12	4	1	2																																block4	explist														18																12	1	18										1		0	117	392023	2999		0	0	0	4	0	16	395538	0	7	1459	396997	1		0	22	397021	0		0	0	Thai_F4_maa241-6	0		0	-1	395022	0	d	500	395522	exproc	block4list	F4	maa	6	241
Assim_main_vietnamese_2000ms	402	1	<?xml version="1.0"?>\n<Clock xmlns:dt="urn:schemas-microsoft-com:datatypes"><Description dt:dt="string">E-Prime Primary Realtime Clock</Description><StartTime><Timestamp dt:dt="int">0</Timestamp><DateUtc dt:dt="string">2018-05-22T00:52:37Z</DateUtc></StartTime><FrequencyChanges><FrequencyChange><Frequency dt:dt="r8">2742392</Frequency><Timestamp dt:dt="r8">255756451293</Timestamp><Current dt:dt="r8">0</Current><DateUtc dt:dt="string">2018-05-22T00:52:37Z</DateUtc></FrequencyChange></FrequencyChanges></Clock>\n	Assim_main_vietnamese_2000ms-402-1	60.017	1.0.0.83	1	-1941408840	Professional	2.0.10.353	2.0.10.353	05-22-2018	22-May-18 12:52:37 AM	10:52:37	2.0.10.248	12	4	1	2																																block4	explist														19																19	1	19										1		0	117	398138	2999		0	0	0	4	0	19	401837	0	5	2360	404197	1		0	19	404219	0		0	0	Thai_F4_mii33-6	0		0	-1	401137	0	g	681	401818	exproc	block4list	F4	mii	6	33
Assim_main_vietnamese_2000ms	402	1	<?xml version="1.0"?>\n<Clock xmlns:dt="urn:schemas-microsoft-com:datatypes"><Description dt:dt="string">E-Prime Primary Realtime Clock</Description><StartTime><Timestamp dt:dt="int">0</Timestamp><DateUtc dt:dt="string">2018-05-22T00:52:37Z</DateUtc></StartTime><FrequencyChanges><FrequencyChange><Frequency dt:dt="r8">2742392</Frequency><Timestamp dt:dt="r8">255756451293</Timestamp><Current dt:dt="r8">0</Current><DateUtc dt:dt="string">2018-05-22T00:52:37Z</DateUtc></FrequencyChange></FrequencyChanges></Clock>\n	Assim_main_vietnamese_2000ms-402-1	60.017	1.0.0.83	1	-1941408840	Professional	2.0.10.353	2.0.10.353	05-22-2018	22-May-18 12:52:37 AM	10:52:37	2.0.10.248	12	4	1	2																																block4	explist														20																13	1	20										1		0	100	405319	2999		0	0	0	4	1	13	409001	0	7	1830	410831	1		0	20	410851	0		0	0	Thai_F4_maa315-6	0		0	-1	408318	0	h	670	408988	exproc	block4list	F4	maa	6	315
Assim_main_vietnamese_2000ms	402	1	<?xml version="1.0"?>\n<Clock xmlns:dt="urn:schemas-microsoft-com:datatypes"><Description dt:dt="string">E-Prime Primary Realtime Clock</Description><StartTime><Timestamp dt:dt="int">0</Timestamp><DateUtc dt:dt="string">2018-05-22T00:52:37Z</DateUtc></StartTime><FrequencyChanges><FrequencyChange><Frequency dt:dt="r8">2742392</Frequency><Timestamp dt:dt="r8">255756451293</Timestamp><Current dt:dt="r8">0</Current><DateUtc dt:dt="string">2018-05-22T00:52:37Z</DateUtc></FrequencyChange></FrequencyChanges></Clock>\n	Assim_main_vietnamese_2000ms-402-1	60.017	1.0.0.83	1	-1941408840	Professional	2.0.10.353	2.0.10.353	05-22-2018	22-May-18 12:52:37 AM	10:52:37	2.0.10.248	13	1	1	3																																block1	explist														1	9	1	1																									0		0	94	414300	2999	g	2377	416677	0	4	0	7	418082	0	5	2163	420245	1		0	19	420265	0		0	0	Thai_F1_maa33-5	0		0	-1	417299	0	g	776	418075	exproc	block1alist	F2	maa	5	33
Assim_main_vietnamese_2000ms	402	1	<?xml version="1.0"?>\n<Clock xmlns:dt="urn:schemas-microsoft-com:datatypes"><Description dt:dt="string">E-Prime Primary Realtime Clock</Description><StartTime><Timestamp dt:dt="int">0</Timestamp><DateUtc dt:dt="string">2018-05-22T00:52:37Z</DateUtc></StartTime><FrequencyChanges><FrequencyChange><Frequency dt:dt="r8">2742392</Frequency><Timestamp dt:dt="r8">255756451293</Timestamp><Current dt:dt="r8">0</Current><DateUtc dt:dt="string">2018-05-22T00:52:37Z</DateUtc></FrequencyChange></FrequencyChanges></Clock>\n	Assim_main_vietnamese_2000ms-402-1	60.017	1.0.0.83	1	-1941408840	Professional	2.0.10.353	2.0.10.353	05-22-2018	22-May-18 12:52:37 AM	10:52:37	2.0.10.248	13	1	1	3																																block1	explist														2	8	1	2																									1		1	116	421381	3000		0	0	0	4	0	11	425114	0	5	2489	427603	1		0	10	427613	0		0	0	Thai_F1_maa315-3	0		0	0	424381	0	h	722	425103	exproc	block1alist	F2	maa	3	315
Assim_main_vietnamese_2000ms	402	1	<?xml version="1.0"?>\n<Clock xmlns:dt="urn:schemas-microsoft-com:datatypes"><Description dt:dt="string">E-Prime Primary Realtime Clock</Description><StartTime><Timestamp dt:dt="int">0</Timestamp><DateUtc dt:dt="string">2018-05-22T00:52:37Z</DateUtc></StartTime><FrequencyChanges><FrequencyChange><Frequency dt:dt="r8">2742392</Frequency><Timestamp dt:dt="r8">255756451293</Timestamp><Current dt:dt="r8">0</Current><DateUtc dt:dt="string">2018-05-22T00:52:37Z</DateUtc></FrequencyChange></FrequencyChanges></Clock>\n	Assim_main_vietnamese_2000ms-402-1	60.017	1.0.0.83	1	-1941408840	Professional	2.0.10.353	2.0.10.353	05-22-2018	22-May-18 12:52:37 AM	10:52:37	2.0.10.248	13	1	1	3																																block1	explist														3	7	1	3																									1		0	100	428713	2999		0	0	0	4	0	17	432129	0	7	2328	434457	1		0	20	434478	0		0	0	Thai_F1_maa241-5	0		0	-1	431712	0	d	400	432112	exproc	block1alist	F2	maa	5	241
Assim_main_vietnamese_2000ms	402	1	<?xml version="1.0"?>\n<Clock xmlns:dt="urn:schemas-microsoft-com:datatypes"><Description dt:dt="string">E-Prime Primary Realtime Clock</Description><StartTime><Timestamp dt:dt="int">0</Timestamp><DateUtc dt:dt="string">2018-05-22T00:52:37Z</DateUtc></StartTime><FrequencyChanges><FrequencyChange><Frequency dt:dt="r8">2742392</Frequency><Timestamp dt:dt="r8">255756451293</Timestamp><Current dt:dt="r8">0</Current><DateUtc dt:dt="string">2018-05-22T00:52:37Z</DateUtc></FrequencyChange></FrequencyChanges></Clock>\n	Assim_main_vietnamese_2000ms-402-1	60.017	1.0.0.83	1	-1941408840	Professional	2.0.10.353	2.0.10.353	05-22-2018	22-May-18 12:52:37 AM	10:52:37	2.0.10.248	13	1	1	3																																block1	explist														4	2	1	4																									1		0	100	435578	2999		0	0	0	4	1	5	439093	0	7	954	440047	1		0	10	440060	0		0	0	Thai_F2_maa241-3	0		0	-1	438577	0	d	511	439088	exproc	block1alist	F2	maa	3	241
Assim_main_vietnamese_2000ms	402	1	<?xml version="1.0"?>\n<Clock xmlns:dt="urn:schemas-microsoft-com:datatypes"><Description dt:dt="string">E-Prime Primary Realtime Clock</Description><StartTime><Timestamp dt:dt="int">0</Timestamp><DateUtc dt:dt="string">2018-05-22T00:52:37Z</DateUtc></StartTime><FrequencyChanges><FrequencyChange><Frequency dt:dt="r8">2742392</Frequency><Timestamp dt:dt="r8">255756451293</Timestamp><Current dt:dt="r8">0</Current><DateUtc dt:dt="string">2018-05-22T00:52:37Z</DateUtc></FrequencyChange></FrequencyChanges></Clock>\n	Assim_main_vietnamese_2000ms-402-1	60.017	1.0.0.83	1	-1941408840	Professional	2.0.10.353	2.0.10.353	05-22-2018	22-May-18 12:52:37 AM	10:52:37	2.0.10.248	13	1	1	3																																block1	explist														5	6	1	5																									1		0	116	441176	2999		0	0	0	4	0	19	444925	0	1	1573	446498	1		0	26	446525	0		0	0	Thai_F1_maa21-5	0		0	-1	444175	0	g	730	444905	exproc	block1alist	F2	maa	5	21
Assim_main_vietnamese_2000ms	402	1	<?xml version="1.0"?>\n<Clock xmlns:dt="urn:schemas-microsoft-com:datatypes"><Description dt:dt="string">E-Prime Primary Realtime Clock</Description><StartTime><Timestamp dt:dt="int">0</Timestamp><DateUtc dt:dt="string">2018-05-22T00:52:37Z</DateUtc></StartTime><FrequencyChanges><FrequencyChange><Frequency dt:dt="r8">2742392</Frequency><Timestamp dt:dt="r8">255756451293</Timestamp><Current dt:dt="r8">0</Current><DateUtc dt:dt="string">2018-05-22T00:52:37Z</DateUtc></FrequencyChange></FrequencyChanges></Clock>\n	Assim_main_vietnamese_2000ms-402-1	60.017	1.0.0.83	1	-1941408840	Professional	2.0.10.353	2.0.10.353	05-22-2018	22-May-18 12:52:37 AM	10:52:37	2.0.10.248	13	1	1	3																																block1	explist														6	3	1	6																									1		0	99	447624	3000		0	0	0	4	0	10	451557	0	7	1285	452842	1		0	13	452856	0		0	0	Thai_F2_maa315-2	0		0	0	450624	0	h	923	451547	exproc	block1alist	F2	maa	2	315
Assim_main_vietnamese_2000ms	402	1	<?xml version="1.0"?>\n<Clock xmlns:dt="urn:schemas-microsoft-com:datatypes"><Description dt:dt="string">E-Prime Primary Realtime Clock</Description><StartTime><Timestamp dt:dt="int">0</Timestamp><DateUtc dt:dt="string">2018-05-22T00:52:37Z</DateUtc></StartTime><FrequencyChanges><FrequencyChange><Frequency dt:dt="r8">2742392</Frequency><Timestamp dt:dt="r8">255756451293</Timestamp><Current dt:dt="r8">0</Current><DateUtc dt:dt="string">2018-05-22T00:52:37Z</DateUtc></FrequencyChange></FrequencyChanges></Clock>\n	Assim_main_vietnamese_2000ms-402-1	60.017	1.0.0.83	1	-1941408840	Professional	2.0.10.353	2.0.10.353	05-22-2018	22-May-18 12:52:37 AM	10:52:37	2.0.10.248	13	1	1	3																																block1	explist														7	4	1	7																									1		0	83	453939	3000		0	0	0	4	1	15	457488	0	7	2024	459512	1		0	23	459538	0		0	0	Thai_F2_maa33-2	0		0	0	456939	0	d	534	457473	exproc	block1alist	F2	maa	2	33
Assim_main_vietnamese_2000ms	402	1	<?xml version="1.0"?>\n<Clock xmlns:dt="urn:schemas-microsoft-com:datatypes"><Description dt:dt="string">E-Prime Primary Realtime Clock</Description><StartTime><Timestamp dt:dt="int">0</Timestamp><DateUtc dt:dt="string">2018-05-22T00:52:37Z</DateUtc></StartTime><FrequencyChanges><FrequencyChange><Frequency dt:dt="r8">2742392</Frequency><Timestamp dt:dt="r8">255756451293</Timestamp><Current dt:dt="r8">0</Current><DateUtc dt:dt="string">2018-05-22T00:52:37Z</DateUtc></FrequencyChange></FrequencyChanges></Clock>\n	Assim_main_vietnamese_2000ms-402-1	60.017	1.0.0.83	1	-1941408840	Professional	2.0.10.353	2.0.10.353	05-22-2018	22-May-18 12:52:37 AM	10:52:37	2.0.10.248	13	1	1	3																																block1	explist														8	10	1	8																									0		0	100	460638	2999	h	1917	462555	0	4	0	12	464103	0	5	1726	465829	1		0	21	465853	0		0	0	Thai_F1_maa45-5	0		0	-1	463637	0	h	454	464091	exproc	block1alist	F2	maa	5	45
Assim_main_vietnamese_2000ms	402	1	<?xml version="1.0"?>\n<Clock xmlns:dt="urn:schemas-microsoft-com:datatypes"><Description dt:dt="string">E-Prime Primary Realtime Clock</Description><StartTime><Timestamp dt:dt="int">0</Timestamp><DateUtc dt:dt="string">2018-05-22T00:52:37Z</DateUtc></StartTime><FrequencyChanges><FrequencyChange><Frequency dt:dt="r8">2742392</Frequency><Timestamp dt:dt="r8">255756451293</Timestamp><Current dt:dt="r8">0</Current><DateUtc dt:dt="string">2018-05-22T00:52:37Z</DateUtc></FrequencyChange></FrequencyChanges></Clock>\n	Assim_main_vietnamese_2000ms-402-1	60.017	1.0.0.83	1	-1941408840	Professional	2.0.10.353	2.0.10.353	05-22-2018	22-May-18 12:52:37 AM	10:52:37	2.0.10.248	13	1	1	3																																block1	explist														9	5	1	9																									1		0	116	466969	2999		0	0	0	4	0	20	470668	0	2	2854	473522	1		0	26	473551	0		0	0	Thai_F2_maa45-1	0		0	-1	469968	0	h	680	470648	exproc	block1alist	F2	maa	1	45
Assim_main_vietnamese_2000ms	402	1	<?xml version="1.0"?>\n<Clock xmlns:dt="urn:schemas-microsoft-com:datatypes"><Description dt:dt="string">E-Prime Primary Realtime Clock</Description><StartTime><Timestamp dt:dt="int">0</Timestamp><DateUtc dt:dt="string">2018-05-22T00:52:37Z</DateUtc></StartTime><FrequencyChanges><FrequencyChange><Frequency dt:dt="r8">2742392</Frequency><Timestamp dt:dt="r8">255756451293</Timestamp><Current dt:dt="r8">0</Current><DateUtc dt:dt="string">2018-05-22T00:52:37Z</DateUtc></FrequencyChange></FrequencyChanges></Clock>\n	Assim_main_vietnamese_2000ms-402-1	60.017	1.0.0.83	1	-1941408840	Professional	2.0.10.353	2.0.10.353	05-22-2018	22-May-18 12:52:37 AM	10:52:37	2.0.10.248	13	1	1	3																																block1	explist														10	1	1	10																									1		1	99	474650	3000		0	0	0	4	0	6	478083	0	3	2438	480521	1		0	25	480549	0		0	0	Thai_F2_maa21-1	0		0	0	477650	0	g	427	478077	exproc	block1alist	F2	maa	1	21
Assim_main_vietnamese_2000ms	402	1	<?xml version="1.0"?>\n<Clock xmlns:dt="urn:schemas-microsoft-com:datatypes"><Description dt:dt="string">E-Prime Primary Realtime Clock</Description><StartTime><Timestamp dt:dt="int">0</Timestamp><DateUtc dt:dt="string">2018-05-22T00:52:37Z</DateUtc></StartTime><FrequencyChanges><FrequencyChange><Frequency dt:dt="r8">2742392</Frequency><Timestamp dt:dt="r8">255756451293</Timestamp><Current dt:dt="r8">0</Current><DateUtc dt:dt="string">2018-05-22T00:52:37Z</DateUtc></FrequencyChange></FrequencyChanges></Clock>\n	Assim_main_vietnamese_2000ms-402-1	60.017	1.0.0.83	1	-1941408840	Professional	2.0.10.353	2.0.10.353	05-22-2018	22-May-18 12:52:37 AM	10:52:37	2.0.10.248	13	1	1	3																																block1	explist														11				1	1	1																						1		0	83	481632	2999		0	0	0	4	0	18	485064	0	6	1919	486983	1		0	12	486997	0		0	0	Thai_F2_mii21-2	0		0	-1	484631	0	g	415	485046	exproc	block1blist	F2	mii	2	21
Assim_main_vietnamese_2000ms	402	1	<?xml version="1.0"?>\n<Clock xmlns:dt="urn:schemas-microsoft-com:datatypes"><Description dt:dt="string">E-Prime Primary Realtime Clock</Description><StartTime><Timestamp dt:dt="int">0</Timestamp><DateUtc dt:dt="string">2018-05-22T00:52:37Z</DateUtc></StartTime><FrequencyChanges><FrequencyChange><Frequency dt:dt="r8">2742392</Frequency><Timestamp dt:dt="r8">255756451293</Timestamp><Current dt:dt="r8">0</Current><DateUtc dt:dt="string">2018-05-22T00:52:37Z</DateUtc></FrequencyChange></FrequencyChanges></Clock>\n	Assim_main_vietnamese_2000ms-402-1	60.017	1.0.0.83	1	-1941408840	Professional	2.0.10.353	2.0.10.353	05-22-2018	22-May-18 12:52:37 AM	10:52:37	2.0.10.248	13	1	1	3																																block1	explist														12				4	1	2																						1		0	117	488114	2999		0	0	0	4	0	6	491713	0	5	1427	493140	1		0	21	493162	0		0	0	Thai_F2_mii33-3	0		0	-1	491113	0	d	594	491707	exproc	block1blist	F2	mii	3	33
Assim_main_vietnamese_2000ms	402	1	<?xml version="1.0"?>\n<Clock xmlns:dt="urn:schemas-microsoft-com:datatypes"><Description dt:dt="string">E-Prime Primary Realtime Clock</Description><StartTime><Timestamp dt:dt="int">0</Timestamp><DateUtc dt:dt="string">2018-05-22T00:52:37Z</DateUtc></StartTime><FrequencyChanges><FrequencyChange><Frequency dt:dt="r8">2742392</Frequency><Timestamp dt:dt="r8">255756451293</Timestamp><Current dt:dt="r8">0</Current><DateUtc dt:dt="string">2018-05-22T00:52:37Z</DateUtc></FrequencyChange></FrequencyChanges></Clock>\n	Assim_main_vietnamese_2000ms-402-1	60.017	1.0.0.83	1	-1941408840	Professional	2.0.10.353	2.0.10.353	05-22-2018	22-May-18 12:52:37 AM	10:52:37	2.0.10.248	13	1	1	3																																block1	explist														13				8	1	3																						1		0	100	494262	2999		0	0	0	4	0	8	498178	0	7	2107	500285	1		0	25	500310	0		0	0	Thai_F2_mii315-5	0		0	-1	497261	0	h	909	498170	exproc	block1blist	F2	mii	5	315
Assim_main_vietnamese_2000ms	402	1	<?xml version="1.0"?>\n<Clock xmlns:dt="urn:schemas-microsoft-com:datatypes"><Description dt:dt="string">E-Prime Primary Realtime Clock</Description><StartTime><Timestamp dt:dt="int">0</Timestamp><DateUtc dt:dt="string">2018-05-22T00:52:37Z</DateUtc></StartTime><FrequencyChanges><FrequencyChange><Frequency dt:dt="r8">2742392</Frequency><Timestamp dt:dt="r8">255756451293</Timestamp><Current dt:dt="r8">0</Current><DateUtc dt:dt="string">2018-05-22T00:52:37Z</DateUtc></FrequencyChange></FrequencyChanges></Clock>\n	Assim_main_vietnamese_2000ms-402-1	60.017	1.0.0.83	1	-1941408840	Professional	2.0.10.353	2.0.10.353	05-22-2018	22-May-18 12:52:37 AM	10:52:37	2.0.10.248	13	1	1	3																																block1	explist														14				3	1	4																						1		0	83	501393	3000		0	0	0	4	0	19	504776	0	7	1463	506239	1		0	16	506259	0		0	0	Thai_F2_mii315-1	0		0	0	504393	0	h	364	504757	exproc	block1blist	F2	mii	1	315
Assim_main_vietnamese_2000ms	402	1	<?xml version="1.0"?>\n<Clock xmlns:dt="urn:schemas-microsoft-com:datatypes"><Description dt:dt="string">E-Prime Primary Realtime Clock</Description><StartTime><Timestamp dt:dt="int">0</Timestamp><DateUtc dt:dt="string">2018-05-22T00:52:37Z</DateUtc></StartTime><FrequencyChanges><FrequencyChange><Frequency dt:dt="r8">2742392</Frequency><Timestamp dt:dt="r8">255756451293</Timestamp><Current dt:dt="r8">0</Current><DateUtc dt:dt="string">2018-05-22T00:52:37Z</DateUtc></FrequencyChange></FrequencyChanges></Clock>\n	Assim_main_vietnamese_2000ms-402-1	60.017	1.0.0.83	1	-1941408840	Professional	2.0.10.353	2.0.10.353	05-22-2018	22-May-18 12:52:37 AM	10:52:37	2.0.10.248	13	1	1	3																																block1	explist														15				10	1	5																						1		0	99	507358	3000		0	0	1	4	0	19	511674	0	4	2242	513916	1		0	23	513940	0		0	0	Thai_F2_mii45-3	0		0	0	510358	0	f	1297	511655	exproc	block1blist	F2	mii	3	45
Assim_main_vietnamese_2000ms	402	1	<?xml version="1.0"?>\n<Clock xmlns:dt="urn:schemas-microsoft-com:datatypes"><Description dt:dt="string">E-Prime Primary Realtime Clock</Description><StartTime><Timestamp dt:dt="int">0</Timestamp><DateUtc dt:dt="string">2018-05-22T00:52:37Z</DateUtc></StartTime><FrequencyChanges><FrequencyChange><Frequency dt:dt="r8">2742392</Frequency><Timestamp dt:dt="r8">255756451293</Timestamp><Current dt:dt="r8">0</Current><DateUtc dt:dt="string">2018-05-22T00:52:37Z</DateUtc></FrequencyChange></FrequencyChanges></Clock>\n	Assim_main_vietnamese_2000ms-402-1	60.017	1.0.0.83	1	-1941408840	Professional	2.0.10.353	2.0.10.353	05-22-2018	22-May-18 12:52:37 AM	10:52:37	2.0.10.248	13	1	1	3																																block1	explist														16				2	1	6																						1		0	116	515056	3000		0	0	0	4	0	17	518772	0	7	1899	520671	1		0	16	520688	0		0	0	Thai_F2_mii241-2	0		0	0	518056	0	d	699	518755	exproc	block1blist	F2	mii	2	241
Assim_main_vietnamese_2000ms	402	1	<?xml version="1.0"?>\n<Clock xmlns:dt="urn:schemas-microsoft-com:datatypes"><Description dt:dt="string">E-Prime Primary Realtime Clock</Description><StartTime><Timestamp dt:dt="int">0</Timestamp><DateUtc dt:dt="string">2018-05-22T00:52:37Z</DateUtc></StartTime><FrequencyChanges><FrequencyChange><Frequency dt:dt="r8">2742392</Frequency><Timestamp dt:dt="r8">255756451293</Timestamp><Current dt:dt="r8">0</Current><DateUtc dt:dt="string">2018-05-22T00:52:37Z</DateUtc></FrequencyChange></FrequencyChanges></Clock>\n	Assim_main_vietnamese_2000ms-402-1	60.017	1.0.0.83	1	-1941408840	Professional	2.0.10.353	2.0.10.353	05-22-2018	22-May-18 12:52:37 AM	10:52:37	2.0.10.248	13	1	1	3																																block1	explist														17				5	1	7																						0		0	100	521788	2999	h	2572	524360	0	4	0	14	525287	0	7	2203	527490	1		0	11	527503	0		0	0	Thai_F2_mii45-2	0		0	-1	524787	0	h	486	525273	exproc	block1blist	F2	mii	2	45
Assim_main_vietnamese_2000ms	402	1	<?xml version="1.0"?>\n<Clock xmlns:dt="urn:schemas-microsoft-com:datatypes"><Description dt:dt="string">E-Prime Primary Realtime Clock</Description><StartTime><Timestamp dt:dt="int">0</Timestamp><DateUtc dt:dt="string">2018-05-22T00:52:37Z</DateUtc></StartTime><FrequencyChanges><FrequencyChange><Frequency dt:dt="r8">2742392</Frequency><Timestamp dt:dt="r8">255756451293</Timestamp><Current dt:dt="r8">0</Current><DateUtc dt:dt="string">2018-05-22T00:52:37Z</DateUtc></FrequencyChange></FrequencyChanges></Clock>\n	Assim_main_vietnamese_2000ms-402-1	60.017	1.0.0.83	1	-1941408840	Professional	2.0.10.353	2.0.10.353	05-22-2018	22-May-18 12:52:37 AM	10:52:37	2.0.10.248	13	1	1	3																																block1	explist														18				7	1	8																						1		0	83	528586	2999		0	0	0	4	0	17	532235	0	7	1972	534207	1		0	10	534218	0		0	0	Thai_F2_mii241-3	0		0	-1	531585	0	d	633	532218	exproc	block1blist	F2	mii	3	241
Assim_main_vietnamese_2000ms	402	1	<?xml version="1.0"?>\n<Clock xmlns:dt="urn:schemas-microsoft-com:datatypes"><Description dt:dt="string">E-Prime Primary Realtime Clock</Description><StartTime><Timestamp dt:dt="int">0</Timestamp><DateUtc dt:dt="string">2018-05-22T00:52:37Z</DateUtc></StartTime><FrequencyChanges><FrequencyChange><Frequency dt:dt="r8">2742392</Frequency><Timestamp dt:dt="r8">255756451293</Timestamp><Current dt:dt="r8">0</Current><DateUtc dt:dt="string">2018-05-22T00:52:37Z</DateUtc></FrequencyChange></FrequencyChanges></Clock>\n	Assim_main_vietnamese_2000ms-402-1	60.017	1.0.0.83	1	-1941408840	Professional	2.0.10.353	2.0.10.353	05-22-2018	22-May-18 12:52:37 AM	10:52:37	2.0.10.248	13	1	1	3																																block1	explist														19				9	1	9																						1		0	116	535334	2999		0	0	0	4	0	9	539017	0	5	2021	541038	1		0	24	541066	0		0	0	Thai_F2_mii33-5	0		1	-1	538333	0	g	675	539008	exproc	block1blist	F2	mii	5	33
Assim_main_vietnamese_2000ms	402	1	<?xml version="1.0"?>\n<Clock xmlns:dt="urn:schemas-microsoft-com:datatypes"><Description dt:dt="string">E-Prime Primary Realtime Clock</Description><StartTime><Timestamp dt:dt="int">0</Timestamp><DateUtc dt:dt="string">2018-05-22T00:52:37Z</DateUtc></StartTime><FrequencyChanges><FrequencyChange><Frequency dt:dt="r8">2742392</Frequency><Timestamp dt:dt="r8">255756451293</Timestamp><Current dt:dt="r8">0</Current><DateUtc dt:dt="string">2018-05-22T00:52:37Z</DateUtc></FrequencyChange></FrequencyChanges></Clock>\n	Assim_main_vietnamese_2000ms-402-1	60.017	1.0.0.83	1	-1941408840	Professional	2.0.10.353	2.0.10.353	05-22-2018	22-May-18 12:52:37 AM	10:52:37	2.0.10.248	13	1	1	3																																block1	explist														20				6	1	10																						1		0	116	542182	3000		0	0	0	4	0	20	545815	0	1	1427	547242	1		0	20	547264	0		0	0	Thai_F2_mii21-5	0		0	0	545182	0	g	613	545795	exproc	block1blist	F2	mii	5	21
Assim_main_vietnamese_2000ms	402	1	<?xml version="1.0"?>\n<Clock xmlns:dt="urn:schemas-microsoft-com:datatypes"><Description dt:dt="string">E-Prime Primary Realtime Clock</Description><StartTime><Timestamp dt:dt="int">0</Timestamp><DateUtc dt:dt="string">2018-05-22T00:52:37Z</DateUtc></StartTime><FrequencyChanges><FrequencyChange><Frequency dt:dt="r8">2742392</Frequency><Timestamp dt:dt="r8">255756451293</Timestamp><Current dt:dt="r8">0</Current><DateUtc dt:dt="string">2018-05-22T00:52:37Z</DateUtc></FrequencyChange></FrequencyChanges></Clock>\n	Assim_main_vietnamese_2000ms-402-1	60.017	1.0.0.83	1	-1941408840	Professional	2.0.10.353	2.0.10.353	05-22-2018	22-May-18 12:52:37 AM	10:52:37	2.0.10.248	14	2	1	4																																block2	explist														1							3	1	1																			1		0	103	552380	2999		0	0	0	4	1	19	555845	0	6	1500	557345	1		0	15	557362	0		0	0	Thai_F4_maa315-5	0		0	-1	555379	0	h	447	555826	exproc	block2alist	F4	maa	5	315
Assim_main_vietnamese_2000ms	402	1	<?xml version="1.0"?>\n<Clock xmlns:dt="urn:schemas-microsoft-com:datatypes"><Description dt:dt="string">E-Prime Primary Realtime Clock</Description><StartTime><Timestamp dt:dt="int">0</Timestamp><DateUtc dt:dt="string">2018-05-22T00:52:37Z</DateUtc></StartTime><FrequencyChanges><FrequencyChange><Frequency dt:dt="r8">2742392</Frequency><Timestamp dt:dt="r8">255756451293</Timestamp><Current dt:dt="r8">0</Current><DateUtc dt:dt="string">2018-05-22T00:52:37Z</DateUtc></FrequencyChange></FrequencyChanges></Clock>\n	Assim_main_vietnamese_2000ms-402-1	60.017	1.0.0.83	1	-1941408840	Professional	2.0.10.353	2.0.10.353	05-22-2018	22-May-18 12:52:37 AM	10:52:37	2.0.10.248	14	2	1	4																																block2	explist														2							10	1	2																			1		1	99	558461	3000		0	0	1	4	1	7	561627	0	4	2063	563690	1		0	16	563710	0		0	0	Thai_F2_maa45-2	0		0	0	561461	0	h	159	561620	exproc	block2alist	F4	maa	2	45
Assim_main_vietnamese_2000ms	402	1	<?xml version="1.0"?>\n<Clock xmlns:dt="urn:schemas-microsoft-com:datatypes"><Description dt:dt="string">E-Prime Primary Realtime Clock</Description><StartTime><Timestamp dt:dt="int">0</Timestamp><DateUtc dt:dt="string">2018-05-22T00:52:37Z</DateUtc></StartTime><FrequencyChanges><FrequencyChange><Frequency dt:dt="r8">2742392</Frequency><Timestamp dt:dt="r8">255756451293</Timestamp><Current dt:dt="r8">0</Current><DateUtc dt:dt="string">2018-05-22T00:52:37Z</DateUtc></FrequencyChange></FrequencyChanges></Clock>\n	Assim_main_vietnamese_2000ms-402-1	60.017	1.0.0.83	1	-1941408840	Professional	2.0.10.353	2.0.10.353	05-22-2018	22-May-18 12:52:37 AM	10:52:37	2.0.10.248	14	2	1	4																																block2	explist														3							4	1	3																			1		0	100	564810	2999		0	0	0	4	1	7	568275	0	7	1364	569639	1		0	18	569658	0		0	0	Thai_F4_maa33-1	0		0	-1	567809	0	g	459	568268	exproc	block2alist	F4	maa	1	33
Assim_main_vietnamese_2000ms	402	1	<?xml version="1.0"?>\n<Clock xmlns:dt="urn:schemas-microsoft-com:datatypes"><Description dt:dt="string">E-Prime Primary Realtime Clock</Description><StartTime><Timestamp dt:dt="int">0</Timestamp><DateUtc dt:dt="string">2018-05-22T00:52:37Z</DateUtc></StartTime><FrequencyChanges><FrequencyChange><Frequency dt:dt="r8">2742392</Frequency><Timestamp dt:dt="r8">255756451293</Timestamp><Current dt:dt="r8">0</Current><DateUtc dt:dt="string">2018-05-22T00:52:37Z</DateUtc></FrequencyChange></FrequencyChanges></Clock>\n	Assim_main_vietnamese_2000ms-402-1	60.017	1.0.0.83	1	-1941408840	Professional	2.0.10.353	2.0.10.353	05-22-2018	22-May-18 12:52:37 AM	10:52:37	2.0.10.248	14	2	1	4																																block2	explist														4							7	1	4																			1		0	100	570758	2999		0	0	0	4	0	8	574174	0	5	1583	575757	1		0	29	575790	0		0	0	Thai_F2_maa241-5	0		0	-1	573757	0	d	409	574166	exproc	block2alist	F4	maa	5	241
Assim_main_vietnamese_2000ms	402	1	<?xml version="1.0"?>\n<Clock xmlns:dt="urn:schemas-microsoft-com:datatypes"><Description dt:dt="string">E-Prime Primary Realtime Clock</Description><StartTime><Timestamp dt:dt="int">0</Timestamp><DateUtc dt:dt="string">2018-05-22T00:52:37Z</DateUtc></StartTime><FrequencyChanges><FrequencyChange><Frequency dt:dt="r8">2742392</Frequency><Timestamp dt:dt="r8">255756451293</Timestamp><Current dt:dt="r8">0</Current><DateUtc dt:dt="string">2018-05-22T00:52:37Z</DateUtc></FrequencyChange></FrequencyChanges></Clock>\n	Assim_main_vietnamese_2000ms-402-1	60.017	1.0.0.83	1	-1941408840	Professional	2.0.10.353	2.0.10.353	05-22-2018	22-May-18 12:52:37 AM	10:52:37	2.0.10.248	14	2	1	4																																block2	explist														5							6	1	5																			1		0	83	576873	2999		0	0	0	4	0	7	580789	0	3	1792	582581	1		0	21	582605	0		0	0	Thai_F2_maa21-4	0		0	-1	579872	0	g	910	580782	exproc	block2alist	F4	maa	4	21
Assim_main_vietnamese_2000ms	402	1	<?xml version="1.0"?>\n<Clock xmlns:dt="urn:schemas-microsoft-com:datatypes"><Description dt:dt="string">E-Prime Primary Realtime Clock</Description><StartTime><Timestamp dt:dt="int">0</Timestamp><DateUtc dt:dt="string">2018-05-22T00:52:37Z</DateUtc></StartTime><FrequencyChanges><FrequencyChange><Frequency dt:dt="r8">2742392</Frequency><Timestamp dt:dt="r8">255756451293</Timestamp><Current dt:dt="r8">0</Current><DateUtc dt:dt="string">2018-05-22T00:52:37Z</DateUtc></FrequencyChange></FrequencyChanges></Clock>\n	Assim_main_vietnamese_2000ms-402-1	60.017	1.0.0.83	1	-1941408840	Professional	2.0.10.353	2.0.10.353	05-22-2018	22-May-18 12:52:37 AM	10:52:37	2.0.10.248	14	2	1	4																																block2	explist														6							9	1	6																			1		0	116	583721	2999		0	0	0	4	0	10	587120	0	6	2255	589375	1		0	24	589403	0		0	0	Thai_F2_maa33-5	0		1	-1	586720	0	d	390	587110	exproc	block2alist	F4	maa	5	33
Assim_main_vietnamese_2000ms	402	1	<?xml version="1.0"?>\n<Clock xmlns:dt="urn:schemas-microsoft-com:datatypes"><Description dt:dt="string">E-Prime Primary Realtime Clock</Description><StartTime><Timestamp dt:dt="int">0</Timestamp><DateUtc dt:dt="string">2018-05-22T00:52:37Z</DateUtc></StartTime><FrequencyChanges><FrequencyChange><Frequency dt:dt="r8">2742392</Frequency><Timestamp dt:dt="r8">255756451293</Timestamp><Current dt:dt="r8">0</Current><DateUtc dt:dt="string">2018-05-22T00:52:37Z</DateUtc></FrequencyChange></FrequencyChanges></Clock>\n	Assim_main_vietnamese_2000ms-402-1	60.017	1.0.0.83	1	-1941408840	Professional	2.0.10.353	2.0.10.353	05-22-2018	22-May-18 12:52:37 AM	10:52:37	2.0.10.248	14	2	1	4																																block2	explist														7							1	1	7																			1		0	100	590503	2999		0	0	0	4	0	18	594069	0	5	2906	596975	1		0	23	597001	0		0	0	Thai_F4_maa21-1	0		0	-1	593502	0	g	549	594051	exproc	block2alist	F4	maa	1	21
Assim_main_vietnamese_2000ms	402	1	<?xml version="1.0"?>\n<Clock xmlns:dt="urn:schemas-microsoft-com:datatypes"><Description dt:dt="string">E-Prime Primary Realtime Clock</Description><StartTime><Timestamp dt:dt="int">0</Timestamp><DateUtc dt:dt="string">2018-05-22T00:52:37Z</DateUtc></StartTime><FrequencyChanges><FrequencyChange><Frequency dt:dt="r8">2742392</Frequency><Timestamp dt:dt="r8">255756451293</Timestamp><Current dt:dt="r8">0</Current><DateUtc dt:dt="string">2018-05-22T00:52:37Z</DateUtc></FrequencyChange></FrequencyChanges></Clock>\n	Assim_main_vietnamese_2000ms-402-1	60.017	1.0.0.83	1	-1941408840	Professional	2.0.10.353	2.0.10.353	05-22-2018	22-May-18 12:52:37 AM	10:52:37	2.0.10.248	14	2	1	4																																block2	explist														8							8	1	8																			1		1	116	598117	3000		0	0	0	4	0	12	601583	0	5	2718	604301	1		0	12	604316	0		0	0	Thai_F2_maa315-3	0		0	0	601117	0	h	454	601571	exproc	block2alist	F4	maa	3	315
Assim_main_vietnamese_2000ms	402	1	<?xml version="1.0"?>\n<Clock xmlns:dt="urn:schemas-microsoft-com:datatypes"><Description dt:dt="string">E-Prime Primary Realtime Clock</Description><StartTime><Timestamp dt:dt="int">0</Timestamp><DateUtc dt:dt="string">2018-05-22T00:52:37Z</DateUtc></StartTime><FrequencyChanges><FrequencyChange><Frequency dt:dt="r8">2742392</Frequency><Timestamp dt:dt="r8">255756451293</Timestamp><Current dt:dt="r8">0</Current><DateUtc dt:dt="string">2018-05-22T00:52:37Z</DateUtc></FrequencyChange></FrequencyChanges></Clock>\n	Assim_main_vietnamese_2000ms-402-1	60.017	1.0.0.83	1	-1941408840	Professional	2.0.10.353	2.0.10.353	05-22-2018	22-May-18 12:52:37 AM	10:52:37	2.0.10.248	14	2	1	4																																block2	explist														9							2	1	9																			1		0	116	605432	2999		0	0	0	4	0	9	608881	0	6	2531	611412	1		0	16	611431	0		0	0	Thai_F4_maa241-5	0		0	-1	608431	0	d	441	608872	exproc	block2alist	F4	maa	5	241
Assim_main_vietnamese_2000ms	402	1	<?xml version="1.0"?>\n<Clock xmlns:dt="urn:schemas-microsoft-com:datatypes"><Description dt:dt="string">E-Prime Primary Realtime Clock</Description><StartTime><Timestamp dt:dt="int">0</Timestamp><DateUtc dt:dt="string">2018-05-22T00:52:37Z</DateUtc></StartTime><FrequencyChanges><FrequencyChange><Frequency dt:dt="r8">2742392</Frequency><Timestamp dt:dt="r8">255756451293</Timestamp><Current dt:dt="r8">0</Current><DateUtc dt:dt="string">2018-05-22T00:52:37Z</DateUtc></FrequencyChange></FrequencyChanges></Clock>\n	Assim_main_vietnamese_2000ms-402-1	60.017	1.0.0.83	1	-1941408840	Professional	2.0.10.353	2.0.10.353	05-22-2018	22-May-18 12:52:37 AM	10:52:37	2.0.10.248	14	2	1	4																																block2	explist														10							5	1	10																			1		0	116	612547	2999		0	0	0	4	0	20	616229	0	6	1877	618106	1		0	20	618129	0		0	0	Thai_F4_maa45-3	0		0	-1	615546	0	h	663	616209	exproc	block2alist	F4	maa	3	45
Assim_main_vietnamese_2000ms	402	1	<?xml version="1.0"?>\n<Clock xmlns:dt="urn:schemas-microsoft-com:datatypes"><Description dt:dt="string">E-Prime Primary Realtime Clock</Description><StartTime><Timestamp dt:dt="int">0</Timestamp><DateUtc dt:dt="string">2018-05-22T00:52:37Z</DateUtc></StartTime><FrequencyChanges><FrequencyChange><Frequency dt:dt="r8">2742392</Frequency><Timestamp dt:dt="r8">255756451293</Timestamp><Current dt:dt="r8">0</Current><DateUtc dt:dt="string">2018-05-22T00:52:37Z</DateUtc></FrequencyChange></FrequencyChanges></Clock>\n	Assim_main_vietnamese_2000ms-402-1	60.017	1.0.0.83	1	-1941408840	Professional	2.0.10.353	2.0.10.353	05-22-2018	22-May-18 12:52:37 AM	10:52:37	2.0.10.248	14	2	1	4																																block2	explist														11										1	1	1																1		1	99	619228	3000		0	0	0	4	0	11	622578	0	5	1874	624452	1		0	24	624477	0		0	0	Thai_F4_mii21-2	0		0	0	622228	0	g	339	622567	exproc	block2blist	F4	mii	2	21
Assim_main_vietnamese_2000ms	402	1	<?xml version="1.0"?>\n<Clock xmlns:dt="urn:schemas-microsoft-com:datatypes"><Description dt:dt="string">E-Prime Primary Realtime Clock</Description><StartTime><Timestamp dt:dt="int">0</Timestamp><DateUtc dt:dt="string">2018-05-22T00:52:37Z</DateUtc></StartTime><FrequencyChanges><FrequencyChange><Frequency dt:dt="r8">2742392</Frequency><Timestamp dt:dt="r8">255756451293</Timestamp><Current dt:dt="r8">0</Current><DateUtc dt:dt="string">2018-05-22T00:52:37Z</DateUtc></FrequencyChange></FrequencyChanges></Clock>\n	Assim_main_vietnamese_2000ms-402-1	60.017	1.0.0.83	1	-1941408840	Professional	2.0.10.353	2.0.10.353	05-22-2018	22-May-18 12:52:37 AM	10:52:37	2.0.10.248	14	2	1	4																																block2	explist														12										5	1	2																1		0	83	625560	2999		0	0	0	4	1	16	628992	0	5	2286	631278	1		0	28	631309	0		0	0	Thai_F4_mii45-2	0		0	-1	628559	0	h	417	628976	exproc	block2blist	F4	mii	2	45
Assim_main_vietnamese_2000ms	402	1	<?xml version="1.0"?>\n<Clock xmlns:dt="urn:schemas-microsoft-com:datatypes"><Description dt:dt="string">E-Prime Primary Realtime Clock</Description><StartTime><Timestamp dt:dt="int">0</Timestamp><DateUtc dt:dt="string">2018-05-22T00:52:37Z</DateUtc></StartTime><FrequencyChanges><FrequencyChange><Frequency dt:dt="r8">2742392</Frequency><Timestamp dt:dt="r8">255756451293</Timestamp><Current dt:dt="r8">0</Current><DateUtc dt:dt="string">2018-05-22T00:52:37Z</DateUtc></FrequencyChange></FrequencyChanges></Clock>\n	Assim_main_vietnamese_2000ms-402-1	60.017	1.0.0.83	1	-1941408840	Professional	2.0.10.353	2.0.10.353	05-22-2018	22-May-18 12:52:37 AM	10:52:37	2.0.10.248	14	2	1	4																																block2	explist														13										7	1	3																1		0	83	632392	2999		0	0	0	4	0	12	635907	0	7	1308	637215	1		0	24	637240	0		0	0	Thai_F4_mii241-5	0		0	-1	635391	0	d	504	635895	exproc	block2blist	F4	mii	5	241
Assim_main_vietnamese_2000ms	402	1	<?xml version="1.0"?>\n<Clock xmlns:dt="urn:schemas-microsoft-com:datatypes"><Description dt:dt="string">E-Prime Primary Realtime Clock</Description><StartTime><Timestamp dt:dt="int">0</Timestamp><DateUtc dt:dt="string">2018-05-22T00:52:37Z</DateUtc></StartTime><FrequencyChanges><FrequencyChange><Frequency dt:dt="r8">2742392</Frequency><Timestamp dt:dt="r8">255756451293</Timestamp><Current dt:dt="r8">0</Current><DateUtc dt:dt="string">2018-05-22T00:52:37Z</DateUtc></FrequencyChange></FrequencyChanges></Clock>\n	Assim_main_vietnamese_2000ms-402-1	60.017	1.0.0.83	1	-1941408840	Professional	2.0.10.353	2.0.10.353	05-22-2018	22-May-18 12:52:37 AM	10:52:37	2.0.10.248	14	2	1	4																																block2	explist														14										4	1	4																1		0	100	638340	2999		0	0	0	4	0	21	642272	0	3	2120	644392	1		0	12	644405	0		0	0	Thai_F4_mii33-5	0		0	-1	641339	0	g	912	642251	exproc	block2blist	F4	mii	5	33
Assim_main_vietnamese_2000ms	402	1	<?xml version="1.0"?>\n<Clock xmlns:dt="urn:schemas-microsoft-com:datatypes"><Description dt:dt="string">E-Prime Primary Realtime Clock</Description><StartTime><Timestamp dt:dt="int">0</Timestamp><DateUtc dt:dt="string">2018-05-22T00:52:37Z</DateUtc></StartTime><FrequencyChanges><FrequencyChange><Frequency dt:dt="r8">2742392</Frequency><Timestamp dt:dt="r8">255756451293</Timestamp><Current dt:dt="r8">0</Current><DateUtc dt:dt="string">2018-05-22T00:52:37Z</DateUtc></FrequencyChange></FrequencyChanges></Clock>\n	Assim_main_vietnamese_2000ms-402-1	60.017	1.0.0.83	1	-1941408840	Professional	2.0.10.353	2.0.10.353	05-22-2018	22-May-18 12:52:37 AM	10:52:37	2.0.10.248	14	2	1	4																																block2	explist														15										6	1	5																1		1	116	645521	3000		0	0	0	4	1	6	649070	0	2	1743	650813	1		0	20	650837	0		0	0	Thai_F4_mii21-6	0		0	0	648521	0	g	543	649064	exproc	block2blist	F4	mii	6	21
Assim_main_vietnamese_2000ms	402	1	<?xml version="1.0"?>\n<Clock xmlns:dt="urn:schemas-microsoft-com:datatypes"><Description dt:dt="string">E-Prime Primary Realtime Clock</Description><StartTime><Timestamp dt:dt="int">0</Timestamp><DateUtc dt:dt="string">2018-05-22T00:52:37Z</DateUtc></StartTime><FrequencyChanges><FrequencyChange><Frequency dt:dt="r8">2742392</Frequency><Timestamp dt:dt="r8">255756451293</Timestamp><Current dt:dt="r8">0</Current><DateUtc dt:dt="string">2018-05-22T00:52:37Z</DateUtc></FrequencyChange></FrequencyChanges></Clock>\n	Assim_main_vietnamese_2000ms-402-1	60.017	1.0.0.83	1	-1941408840	Professional	2.0.10.353	2.0.10.353	05-22-2018	22-May-18 12:52:37 AM	10:52:37	2.0.10.248	14	2	1	4																																block2	explist														16										9	1	6																1		0	83	651920	2999		0	0	0	4	0	8	655419	0	5	2233	657652	1		0	15	657668	0		0	0	Thai_F4_mii33-6	0		0	-1	654919	0	g	492	655411	exproc	block2blist	F4	mii	6	33
Assim_main_vietnamese_2000ms	402	1	<?xml version="1.0"?>\n<Clock xmlns:dt="urn:schemas-microsoft-com:datatypes"><Description dt:dt="string">E-Prime Primary Realtime Clock</Description><StartTime><Timestamp dt:dt="int">0</Timestamp><DateUtc dt:dt="string">2018-05-22T00:52:37Z</DateUtc></StartTime><FrequencyChanges><FrequencyChange><Frequency dt:dt="r8">2742392</Frequency><Timestamp dt:dt="r8">255756451293</Timestamp><Current dt:dt="r8">0</Current><DateUtc dt:dt="string">2018-05-22T00:52:37Z</DateUtc></FrequencyChange></FrequencyChanges></Clock>\n	Assim_main_vietnamese_2000ms-402-1	60.017	1.0.0.83	1	-1941408840	Professional	2.0.10.353	2.0.10.353	05-22-2018	22-May-18 12:52:37 AM	10:52:37	2.0.10.248	14	2	1	4																																block2	explist														17										8	1	7																1		0	117	658785	2999		0	0	0	4	0	11	662400	0	2	1935	664335	1		0	12	664350	0		0	0	Thai_F4_mii315-6	0		0	-1	661784	0	h	605	662389	exproc	block2blist	F4	mii	6	315
Assim_main_vietnamese_2000ms	402	1	<?xml version="1.0"?>\n<Clock xmlns:dt="urn:schemas-microsoft-com:datatypes"><Description dt:dt="string">E-Prime Primary Realtime Clock</Description><StartTime><Timestamp dt:dt="int">0</Timestamp><DateUtc dt:dt="string">2018-05-22T00:52:37Z</DateUtc></StartTime><FrequencyChanges><FrequencyChange><Frequency dt:dt="r8">2742392</Frequency><Timestamp dt:dt="r8">255756451293</Timestamp><Current dt:dt="r8">0</Current><DateUtc dt:dt="string">2018-05-22T00:52:37Z</DateUtc></FrequencyChange></FrequencyChanges></Clock>\n	Assim_main_vietnamese_2000ms-402-1	60.017	1.0.0.83	1	-1941408840	Professional	2.0.10.353	2.0.10.353	05-22-2018	22-May-18 12:52:37 AM	10:52:37	2.0.10.248	14	2	1	4																																block2	explist														18										10	1	8																1		1	99	665449	3000		0	0	0	4	1	18	668798	0	3	1646	670444	1		0	17	670465	0		0	0	Thai_F4_mii45-3	0		0	0	668449	0	h	331	668780	exproc	block2blist	F4	mii	3	45
Assim_main_vietnamese_2000ms	402	1	<?xml version="1.0"?>\n<Clock xmlns:dt="urn:schemas-microsoft-com:datatypes"><Description dt:dt="string">E-Prime Primary Realtime Clock</Description><StartTime><Timestamp dt:dt="int">0</Timestamp><DateUtc dt:dt="string">2018-05-22T00:52:37Z</DateUtc></StartTime><FrequencyChanges><FrequencyChange><Frequency dt:dt="r8">2742392</Frequency><Timestamp dt:dt="r8">255756451293</Timestamp><Current dt:dt="r8">0</Current><DateUtc dt:dt="string">2018-05-22T00:52:37Z</DateUtc></FrequencyChange></FrequencyChanges></Clock>\n	Assim_main_vietnamese_2000ms-402-1	60.017	1.0.0.83	1	-1941408840	Professional	2.0.10.353	2.0.10.353	05-22-2018	22-May-18 12:52:37 AM	10:52:37	2.0.10.248	14	2	1	4																																block2	explist														19										2	1	9																1		0	83	671548	2999		0	0	0	4	0	14	674997	0	5	2713	677710	1		0	18	677729	0		0	0	Thai_F4_mii241-2	0		0	-1	674547	0	d	436	674983	exproc	block2blist	F4	mii	2	241
Assim_main_vietnamese_2000ms	402	1	<?xml version="1.0"?>\n<Clock xmlns:dt="urn:schemas-microsoft-com:datatypes"><Description dt:dt="string">E-Prime Primary Realtime Clock</Description><StartTime><Timestamp dt:dt="int">0</Timestamp><DateUtc dt:dt="string">2018-05-22T00:52:37Z</DateUtc></StartTime><FrequencyChanges><FrequencyChange><Frequency dt:dt="r8">2742392</Frequency><Timestamp dt:dt="r8">255756451293</Timestamp><Current dt:dt="r8">0</Current><DateUtc dt:dt="string">2018-05-22T00:52:37Z</DateUtc></FrequencyChange></FrequencyChanges></Clock>\n	Assim_main_vietnamese_2000ms-402-1	60.017	1.0.0.83	1	-1941408840	Professional	2.0.10.353	2.0.10.353	05-22-2018	22-May-18 12:52:37 AM	10:52:37	2.0.10.248	14	2	1	4																																block2	explist														20										3	1	10																1		1	83	678812	3000		0	0	1	4	0	14	682228	0	4	2436	684664	1		0	29	684694	0		0	0	Thai_F4_mii315-4	0		0	0	681812	0	h	402	682214	exproc	block2blist	F4	mii	4	315
Assim_main_vietnamese_2000ms	402	1	<?xml version="1.0"?>\n<Clock xmlns:dt="urn:schemas-microsoft-com:datatypes"><Description dt:dt="string">E-Prime Primary Realtime Clock</Description><StartTime><Timestamp dt:dt="int">0</Timestamp><DateUtc dt:dt="string">2018-05-22T00:52:37Z</DateUtc></StartTime><FrequencyChanges><FrequencyChange><Frequency dt:dt="r8">2742392</Frequency><Timestamp dt:dt="r8">255756451293</Timestamp><Current dt:dt="r8">0</Current><DateUtc dt:dt="string">2018-05-22T00:52:37Z</DateUtc></FrequencyChange></FrequencyChanges></Clock>\n	Assim_main_vietnamese_2000ms-402-1	60.017	1.0.0.83	1	-1941408840	Professional	2.0.10.353	2.0.10.353	05-22-2018	22-May-18 12:52:37 AM	10:52:37	2.0.10.248	15	6	1	5																																block6	explist														1																						11	1	1				1		0	94	688243	2999		0	0	0	4	0	10	691792	0	3	3081	694873	1		0	14	694891	0		0	0	Thai_F2_mii21-5	0		1	-1	691242	0	g	540	691782	exproc	block6list	F2	mii	5	21
Assim_main_vietnamese_2000ms	402	1	<?xml version="1.0"?>\n<Clock xmlns:dt="urn:schemas-microsoft-com:datatypes"><Description dt:dt="string">E-Prime Primary Realtime Clock</Description><StartTime><Timestamp dt:dt="int">0</Timestamp><DateUtc dt:dt="string">2018-05-22T00:52:37Z</DateUtc></StartTime><FrequencyChanges><FrequencyChange><Frequency dt:dt="r8">2742392</Frequency><Timestamp dt:dt="r8">255756451293</Timestamp><Current dt:dt="r8">0</Current><DateUtc dt:dt="string">2018-05-22T00:52:37Z</DateUtc></FrequencyChange></FrequencyChanges></Clock>\n	Assim_main_vietnamese_2000ms-402-1	60.017	1.0.0.83	1	-1941408840	Professional	2.0.10.353	2.0.10.353	05-22-2018	22-May-18 12:52:37 AM	10:52:37	2.0.10.248	15	6	1	5																																block6	explist														2																						4	1	2				1		0	84	695975	2999		0	0	0	4	0	17	699574	0	1	2889	702463	1		0	23	702489	0		0	0	Thai_F2_mii33-3	0		0	-1	698974	0	g	583	699557	exproc	block6list	F2	mii	3	33
Assim_main_vietnamese_2000ms	402	1	<?xml version="1.0"?>\n<Clock xmlns:dt="urn:schemas-microsoft-com:datatypes"><Description dt:dt="string">E-Prime Primary Realtime Clock</Description><StartTime><Timestamp dt:dt="int">0</Timestamp><DateUtc dt:dt="string">2018-05-22T00:52:37Z</DateUtc></StartTime><FrequencyChanges><FrequencyChange><Frequency dt:dt="r8">2742392</Frequency><Timestamp dt:dt="r8">255756451293</Timestamp><Current dt:dt="r8">0</Current><DateUtc dt:dt="string">2018-05-22T00:52:37Z</DateUtc></FrequencyChange></FrequencyChanges></Clock>\n	Assim_main_vietnamese_2000ms-402-1	60.017	1.0.0.83	1	-1941408840	Professional	2.0.10.353	2.0.10.353	05-22-2018	22-May-18 12:52:37 AM	10:52:37	2.0.10.248	15	6	1	5																																block6	explist														3																						8	1	3				1		0	100	703589	2999		0	0	0	4	0	18	707138	0	6	2892	710030	1		0	24	710054	0		0	0	Thai_F4_mii315-4	0		0	-1	706588	0	h	532	707120	exproc	block6list	F4	mii	4	315
Assim_main_vietnamese_2000ms	402	1	<?xml version="1.0"?>\n<Clock xmlns:dt="urn:schemas-microsoft-com:datatypes"><Description dt:dt="string">E-Prime Primary Realtime Clock</Description><StartTime><Timestamp dt:dt="int">0</Timestamp><DateUtc dt:dt="string">2018-05-22T00:52:37Z</DateUtc></StartTime><FrequencyChanges><FrequencyChange><Frequency dt:dt="r8">2742392</Frequency><Timestamp dt:dt="r8">255756451293</Timestamp><Current dt:dt="r8">0</Current><DateUtc dt:dt="string">2018-05-22T00:52:37Z</DateUtc></FrequencyChange></FrequencyChanges></Clock>\n	Assim_main_vietnamese_2000ms-402-1	60.017	1.0.0.83	1	-1941408840	Professional	2.0.10.353	2.0.10.353	05-22-2018	22-May-18 12:52:37 AM	10:52:37	2.0.10.248	15	6	1	5																																block6	explist														4																						6	1	4				1		1	116	711170	3000		0	0	0	4	0	21	715103	0	1	1982	717085	1		0	17	717102	0		0	0	Thai_F4_mii21-2	0		0	0	714170	0	g	912	715082	exproc	block6list	F4	mii	2	21
Assim_main_vietnamese_2000ms	402	1	<?xml version="1.0"?>\n<Clock xmlns:dt="urn:schemas-microsoft-com:datatypes"><Description dt:dt="string">E-Prime Primary Realtime Clock</Description><StartTime><Timestamp dt:dt="int">0</Timestamp><DateUtc dt:dt="string">2018-05-22T00:52:37Z</DateUtc></StartTime><FrequencyChanges><FrequencyChange><Frequency dt:dt="r8">2742392</Frequency><Timestamp dt:dt="r8">255756451293</Timestamp><Current dt:dt="r8">0</Current><DateUtc dt:dt="string">2018-05-22T00:52:37Z</DateUtc></FrequencyChange></FrequencyChanges></Clock>\n	Assim_main_vietnamese_2000ms-402-1	60.017	1.0.0.83	1	-1941408840	Professional	2.0.10.353	2.0.10.353	05-22-2018	22-May-18 12:52:37 AM	10:52:37	2.0.10.248	15	6	1	5																																block6	explist														5																						3	1	5				1		0	117	718219	2999		0	0	0	4	0	20	721751	0	5	3621	725372	1		0	11	725383	0		0	0	Thai_F2_mii315-1	0		0	-1	721218	0	h	513	721731	exproc	block6list	F2	mii	1	315
Assim_main_vietnamese_2000ms	402	1	<?xml version="1.0"?>\n<Clock xmlns:dt="urn:schemas-microsoft-com:datatypes"><Description dt:dt="string">E-Prime Primary Realtime Clock</Description><StartTime><Timestamp dt:dt="int">0</Timestamp><DateUtc dt:dt="string">2018-05-22T00:52:37Z</DateUtc></StartTime><FrequencyChanges><FrequencyChange><Frequency dt:dt="r8">2742392</Frequency><Timestamp dt:dt="r8">255756451293</Timestamp><Current dt:dt="r8">0</Current><DateUtc dt:dt="string">2018-05-22T00:52:37Z</DateUtc></FrequencyChange></FrequencyChanges></Clock>\n	Assim_main_vietnamese_2000ms-402-1	60.017	1.0.0.83	1	-1941408840	Professional	2.0.10.353	2.0.10.353	05-22-2018	22-May-18 12:52:37 AM	10:52:37	2.0.10.248	15	6	1	5																																block6	explist														6																						10	1	6				1		0	117	726500	2999		0	0	0	4	0	10	729999	0	6	2058	732057	1		0	25	732082	0		0	0	Thai_F4_mii45-2	0		0	-1	729499	0	h	490	729989	exproc	block6list	F4	mii	2	45
Assim_main_vietnamese_2000ms	402	1	<?xml version="1.0"?>\n<Clock xmlns:dt="urn:schemas-microsoft-com:datatypes"><Description dt:dt="string">E-Prime Primary Realtime Clock</Description><StartTime><Timestamp dt:dt="int">0</Timestamp><DateUtc dt:dt="string">2018-05-22T00:52:37Z</DateUtc></StartTime><FrequencyChanges><FrequencyChange><Frequency dt:dt="r8">2742392</Frequency><Timestamp dt:dt="r8">255756451293</Timestamp><Current dt:dt="r8">0</Current><DateUtc dt:dt="string">2018-05-22T00:52:37Z</DateUtc></FrequencyChange></FrequencyChanges></Clock>\n	Assim_main_vietnamese_2000ms-402-1	60.017	1.0.0.83	1	-1941408840	Professional	2.0.10.353	2.0.10.353	05-22-2018	22-May-18 12:52:37 AM	10:52:37	2.0.10.248	15	6	1	5																																block6	explist														7																						7	1	7				1		0	99	733181	2999		0	0	0	4	0	20	736630	0	7	1989	738619	1		0	25	738646	0		0	0	Thai_F4_mii241-2	0		0	-1	736180	0	d	430	736610	exproc	block6list	F4	mii	2	241
Assim_main_vietnamese_2000ms	402	1	<?xml version="1.0"?>\n<Clock xmlns:dt="urn:schemas-microsoft-com:datatypes"><Description dt:dt="string">E-Prime Primary Realtime Clock</Description><StartTime><Timestamp dt:dt="int">0</Timestamp><DateUtc dt:dt="string">2018-05-22T00:52:37Z</DateUtc></StartTime><FrequencyChanges><FrequencyChange><Frequency dt:dt="r8">2742392</Frequency><Timestamp dt:dt="r8">255756451293</Timestamp><Current dt:dt="r8">0</Current><DateUtc dt:dt="string">2018-05-22T00:52:37Z</DateUtc></FrequencyChange></FrequencyChanges></Clock>\n	Assim_main_vietnamese_2000ms-402-1	60.017	1.0.0.83	1	-1941408840	Professional	2.0.10.353	2.0.10.353	05-22-2018	22-May-18 12:52:37 AM	10:52:37	2.0.10.248	15	6	1	5																																block6	explist														8																						13	1	8				1		0	100	739746	2999		0	0	0	4	0	17	743179	0	7	1028	744207	1		0	17	744228	0		0	0	Thai_F2_mii315-5	0		0	-1	742745	0	h	417	743162	exproc	block6list	F2	mii	5	315
Assim_main_vietnamese_2000ms	402	1	<?xml version="1.0"?>\n<Clock xmlns:dt="urn:schemas-microsoft-com:datatypes"><Description dt:dt="string">E-Prime Primary Realtime Clock</Description><StartTime><Timestamp dt:dt="int">0</Timestamp><DateUtc dt:dt="string">2018-05-22T00:52:37Z</DateUtc></StartTime><FrequencyChanges><FrequencyChange><Frequency dt:dt="r8">2742392</Frequency><Timestamp dt:dt="r8">255756451293</Timestamp><Current dt:dt="r8">0</Current><DateUtc dt:dt="string">2018-05-22T00:52:37Z</DateUtc></FrequencyChange></FrequencyChanges></Clock>\n	Assim_main_vietnamese_2000ms-402-1	60.017	1.0.0.83	1	-1941408840	Professional	2.0.10.353	2.0.10.353	05-22-2018	22-May-18 12:52:37 AM	10:52:37	2.0.10.248	15	6	1	5																																block6	explist														9																						17	1	9				1		0	100	745328	2999		0	0	0	4	0	6	748794	0	7	1109	749903	1		0	23	749927	0		0	0	Thai_F4_mii241-5	0		0	-1	748327	0	d	461	748788	exproc	block6list	F4	mii	5	241
Assim_main_vietnamese_2000ms	402	1	<?xml version="1.0"?>\n<Clock xmlns:dt="urn:schemas-microsoft-com:datatypes"><Description dt:dt="string">E-Prime Primary Realtime Clock</Description><StartTime><Timestamp dt:dt="int">0</Timestamp><DateUtc dt:dt="string">2018-05-22T00:52:37Z</DateUtc></StartTime><FrequencyChanges><FrequencyChange><Frequency dt:dt="r8">2742392</Frequency><Timestamp dt:dt="r8">255756451293</Timestamp><Current dt:dt="r8">0</Current><DateUtc dt:dt="string">2018-05-22T00:52:37Z</DateUtc></FrequencyChange></FrequencyChanges></Clock>\n	Assim_main_vietnamese_2000ms-402-1	60.017	1.0.0.83	1	-1941408840	Professional	2.0.10.353	2.0.10.353	05-22-2018	22-May-18 12:52:37 AM	10:52:37	2.0.10.248	15	6	1	5																																block6	explist														10																						19	1	10				1		1	99	751026	3000		0	0	0	4	0	6	754376	0	3	2080	756456	1		0	15	756475	0		0	0	Thai_F4_mii33-6	0		0	0	754026	0	g	343	754369	exproc	block6list	F4	mii	6	33
Assim_main_vietnamese_2000ms	402	1	<?xml version="1.0"?>\n<Clock xmlns:dt="urn:schemas-microsoft-com:datatypes"><Description dt:dt="string">E-Prime Primary Realtime Clock</Description><StartTime><Timestamp dt:dt="int">0</Timestamp><DateUtc dt:dt="string">2018-05-22T00:52:37Z</DateUtc></StartTime><FrequencyChanges><FrequencyChange><Frequency dt:dt="r8">2742392</Frequency><Timestamp dt:dt="r8">255756451293</Timestamp><Current dt:dt="r8">0</Current><DateUtc dt:dt="string">2018-05-22T00:52:37Z</DateUtc></FrequencyChange></FrequencyChanges></Clock>\n	Assim_main_vietnamese_2000ms-402-1	60.017	1.0.0.83	1	-1941408840	Professional	2.0.10.353	2.0.10.353	05-22-2018	22-May-18 12:52:37 AM	10:52:37	2.0.10.248	15	6	1	5																																block6	explist														11																						12	1	11				1		0	116	757591	3000		0	0	0	4	1	7	761040	0	2	2487	763527	1		0	26	763556	0		0	0	Thai_F2_mii241-3	0		0	0	760591	0	g	442	761033	exproc	block6list	F2	mii	3	241
